{
  "resourceType": "Bundle",
  "type": "document",
  "timestamp": "2025-11-26T15:10:31.774665Z",
  "entry": [
    {
      "fullUrl": "Composition/generated-comp-9b4aae28-bf59-41a9-ad19-763a1bc226c3",
      "resource": {
        "resourceType": "Composition",
        "id": "generated-comp-9b4aae28-bf59-41a9-ad19-763a1bc226c3",
        "status": "final",
        "type": {
          "coding": [
            {
              "system": "http://loinc.org",
              "code": "11506-3",
              "display": "Clinical Document"
            }
          ]
        },
        "title": "Randomized Composition Document (2025-11-26T15:10:31.774644Z)",
        "date": "2025-11-26T15:10:31.774660Z",
        "author": [
          {
            "reference": "Practitioner/10009880728"
          }
        ],
        "subject": {
          "reference": "Patient/P03647103112"
        },
        "encounter": {
          "reference": "Encounter/386da034-0608-4893-8df6-a38b2d3ac338"
        },
        "section": [
          {
            "title": "Diagnosis",
            "entry": [
              {
                "reference": "Condition/a0ae133c-9469-4107-a5b2-1311a122ece1"
              },
              {
                "reference": "Condition/a3e52e62-10b9-4d54-8b2b-fd6585737972"
              }
            ]
          },
          {
            "title": "Pemeriksaan Fungsional",
            "entry": [
              {
                "reference": "Observation/obs-diastole-001"
              },
              {
                "reference": "Observation/08cdd90b-a1d7-4102-90c2-ac189a5db086"
              },
              {
                "reference": "Observation/d66dd8fd-117a-45a0-a66c-497ed6ad0664"
              },
              {
                "reference": "Observation/obs-td-sistol"
              },
              {
                "reference": "Observation/bc54a402-6c42-40e6-8f62-924e01e136f4"
              }
            ]
          },
          {
            "title": "Hasil Pemeriksaan Penunjang",
            "entry": [
              {
                "reference": "Observation/34d72695-6997-4593-bd6c-890373010f74"
              },
              {
                "reference": "Observation/230fbde5-49b7-4738-875e-b23e8472edd0"
              },
              {
                "reference": "Observation/obs-mata-001"
              },
              {
                "reference": "DiagnosticReport/dr-lab-001"
              }
            ]
          },
          {
            "title": "Tanda Vital",
            "entry": [
              {
                "reference": "Observation/8af8ae78-5526-4654-89ff-ec9dfcd24041"
              },
              {
                "reference": "Observation/obs-sistole-001"
              },
              {
                "reference": "Observation/obs-bb"
              },
              {
                "reference": "Observation/d63d9b5d-aa98-4405-8c25-e4e8cc62a073"
              }
            ]
          },
          {
            "title": "Perjalanan Kunjungan Pasien",
            "entry": [
              {
                "reference": "Observation/9ad45971-33ba-41fb-aa1b-bebfa882cb71"
              },
              {
                "reference": "Observation/obs-keluhan-utama"
              },
              {
                "reference": "Procedure/proc-prarad-001"
              },
              {
                "reference": "Observation/3144e054-7de1-44b4-8ea7-3a80f1f82e8f"
              },
              {
                "reference": "Observation/df02e44c-61c1-4dea-a60b-5d3af04e78ab"
              }
            ]
          },
          {
            "title": "Tindakan/Prosedur Medis",
            "entry": [
              {
                "reference": "Procedure/a5c0a8b2-e32e-43e5-bdaf-ac34de8f11dc"
              },
              {
                "reference": "Procedure/proc-lab-001"
              },
              {
                "reference": "Procedure/proc-ekg-001"
              },
              {
                "reference": "Procedure/proc-edukasi"
              }
            ]
          },
          {
            "title": "Obat",
            "entry": [
              {
                "reference": "MedicationDispense/meddisp-visit-001"
              }
            ]
          }
        ]
      }
    },
    {
      "fullUrl": "Patient/P03647103112",
      "resource": {
        "resourceType": "Patient",
        "id": "P03647103112",
        "identifier": [
          {
            "system": "https://fhir.kemkes.go.id/id/nik",
            "value": "P03647103112"
          }
        ],
        "name": [
          {
            "use": "official",
            "text": "Claudia Sintia"
          }
        ],
        "gender": "female"
      }
    },
    {
      "fullUrl": "Practitioner/10009880728",
      "resource": {
        "address": [
          {
            "city": "Kab. Garut",
            "country": "ID",
            "extension": [
              {
                "extension": [
                  {
                    "url": "province",
                    "valueCode": "32"
                  },
                  {
                    "url": "city",
                    "valueCode": "3205"
                  },
                  {
                    "url": "district",
                    "valueCode": "320519"
                  },
                  {
                    "url": "village",
                    "valueCode": "3205192003"
                  },
                  {
                    "url": "rw",
                    "valueCode": "1"
                  },
                  {
                    "url": "rt",
                    "valueCode": "12"
                  }
                ],
                "url": "https://fhir.kemkes.go.id/r4/StructureDefinition/administrativeCode"
              }
            ],
            "line": [
              "Komplek Kesehatan"
            ],
            "use": "home"
          }
        ],
        "birthDate": "1994-01-01",
        "gender": "male",
        "id": "10009880728",
        "identifier": [
          {
            "system": "https://fhir.kemkes.go.id/id/nakes-his-number",
            "value": "10009880728"
          },
          {
            "system": "https://fhir.kemkes.go.id/id/nik",
            "use": "official",
            "value": "7209061211900001"
          }
        ],
        "meta": {
          "lastUpdated": "2024-11-05T09:09:10.336694+00:00",
          "versionId": "MTczMDc5Nzc1MDMzNjY5NDAwMA"
        },
        "name": [
          {
            "text": "dr. Alexander",
            "use": "official"
          }
        ],
        "qualification": [
          {
            "code": {
              "coding": [
                {
                  "code": "STR-KKI",
                  "display": "Surat Tanda Registrasi Dokter",
                  "system": "https://terminology.kemkes.go.id/v1-0302"
                }
              ]
            },
            "identifier": [
              {
                "system": "https://fhir.kemkes.go.id/id/str-kki-number",
                "value": "1234567887654321"
              }
            ]
          }
        ],
        "resourceType": "Practitioner"
      }
    },
    {
      "fullUrl": "Encounter/386da034-0608-4893-8df6-a38b2d3ac338",
      "resource": {
        "basedOn": [
          {
            "reference": "ServiceRequest/ebe9bf58-8080-44e8-9a59-049f368ef8b0"
          },
          {
            "reference": "ServiceRequest/8cfbbc00-0b76-49ff-9f66-6a468bc0376f"
          }
        ],
        "class": {
          "code": "IMP",
          "display": "inpatient encounter",
          "system": "http://terminology.hl7.org/CodeSystem/v3-ActCode"
        },
        "diagnosis": [
          {
            "condition": {
              "reference": "Condition/2bbedc42-87e5-4ea6-bc6d-5691b3c313dd"
            },
            "use": {
              "coding": [
                {
                  "code": "DD",
                  "display": "Discharge diagnosis",
                  "system": "http://terminology.hl7.org/CodeSystem/diagnosis-role"
                }
              ]
            }
          }
        ],
        "episodeOfCare": [
          {
            "reference": "EpisodeOfCare/4d13490a-43d9-4862-ad28-561379fc9944"
          }
        ],
        "hospitalization": {
          "dischargeDisposition": {
            "coding": [
              {
                "code": "home",
                "display": "Home",
                "system": "http://terminology.hl7.org/CodeSystem/discharge-disposition"
              }
            ],
            "text": "Boleh pulang setelah operasi dan kontrol kembali 1 bulan lagi"
          }
        },
        "id": "386da034-0608-4893-8df6-a38b2d3ac338",
        "identifier": [
          {
            "system": "http://sys-ids.kemkes.go.id/encounter/6e3e3a13-8114-44b2-90b3-bbaeeeebf9f0",
            "value": "{{Registration_Id}}"
          }
        ],
        "location": [
          {
            "extension": [
              {
                "url": "https://fhir.kemkes.go.id/r4/StructureDefinition/LocationServiceClass",
                "valueCodeableConcept": {
                  "coding": [
                    {
                      "code": "1",
                      "display": "Kelas 1",
                      "system": "http://terminology.kemkes.go.id/CodeSystem/locationServiceClass-Inpatient"
                    }
                  ]
                }
              }
            ],
            "location": {
              "display": "Ruang Poli Umum",
              "reference": "Location/a482e8d2-870e-45f2-a067-cccf633f0cde"
            },
            "period": {
              "end": "2023-11-17T10:00:00+00:00",
              "start": "2023-11-17T07:30:00+00:00"
            }
          },
          {
            "extension": [
              {
                "extension": [
                  {
                    "url": "value",
                    "valueCodeableConcept": {
                      "coding": [
                        {
                          "code": "1",
                          "display": "Kelas 1",
                          "system": "http://terminology.kemkes.go.id/CodeSystem/locationServiceClass-Inpatient"
                        }
                      ]
                    }
                  },
                  {
                    "url": "upgradeClassIndicator",
                    "valueCodeableConcept": {
                      "coding": [
                        {
                          "code": "kelas-tetap",
                          "display": "Kelas Tetap Perawatan",
                          "system": "http://terminology.kemkes.go.id/CodeSystem/locationUpgradeClass"
                        }
                      ]
                    }
                  }
                ],
                "url": "https://fhir.kemkes.go.id/r4/StructureDefinition/ServiceClass"
              }
            ],
            "location": {
              "display": "Ruang Poli Umum",
              "reference": "Location/a482e8d2-870e-45f2-a067-cccf633f0cde"
            },
            "period": {
              "end": "2023-11-17T11:30:00+00:00",
              "start": "2023-11-17T10:00:00+00:00"
            }
          }
        ],
        "meta": {
          "lastUpdated": "2025-08-08T06:22:48.989588+00:00",
          "versionId": "MTc1NDYzNDE2ODk4OTU4ODAwMA"
        },
        "participant": [
          {
            "individual": {
              "display": "Dr. Alexander",
              "reference": "Practitioner/10009880728"
            },
            "type": [
              {
                "coding": [
                  {
                    "code": "ATND",
                    "display": "attender",
                    "system": "http://terminology.hl7.org/CodeSystem/v3-ParticipationType"
                  }
                ]
              }
            ]
          }
        ],
        "period": {
          "end": "2023-11-17T11:30:00+00:00",
          "start": "2023-11-17T07:30:00+00:00"
        },
        "resourceType": "Encounter",
        "serviceProvider": {
          "reference": "Organization/6e3e3a13-8114-44b2-90b3-bbaeeeebf9f0"
        },
        "status": "finished",
        "statusHistory": [
          {
            "period": {
              "end": "2023-11-17T11:30:00+00:00",
              "start": "2023-11-17T07:30:00+00:00"
            },
            "status": "in-progress"
          },
          {
            "period": {
              "end": "2023-11-17T11:30:00+00:00",
              "start": "2023-11-17T11:30:00+00:00"
            },
            "status": "finished"
          }
        ],
        "subject": {
          "display": "Claudia Sintia",
          "reference": "Patient/P03647103112"
        }
      }
    },
    {
      "fullUrl": "EpisodeOfCare/4d13490a-43d9-4862-ad28-561379fc9944",
      "resource": {
        "id": "4d13490a-43d9-4862-ad28-561379fc9944",
        "identifier": [
          {
            "system": "http://sys-ids.kemkes.go.id/episode-of-care/b42e8c8b-1631-4e8a-9d69-ac2107afef57",
            "value": "2024082919626"
          },
          {
            "system": "http://sys-ids.kemkes.go.id/episode-of-care/suspect-id/",
            "value": "CNCS202435000006107"
          },
          {
            "system": "http://sys-ids.kemkes.go.id/episode-of-care/registry-id/",
            "value": "CNCC202511000000063"
          }
        ],
        "managingOrganization": {
          "reference": "Organization/b42e8c8b-1631-4e8a-9d69-ac2107afef57"
        },
        "meta": {
          "lastUpdated": "2025-08-08T06:24:18.773270+00:00",
          "versionId": "MTc1NDYzNDI1ODc3MzI3MDAwMA"
        },
        "patient": {
          "display": "yuni",
          "reference": "Patient/P03647103112"
        },
        "period": {
          "start": "2024-04-24T08:45:00+00:00"
        },
        "resourceType": "EpisodeOfCare",
        "status": "finished",
        "statusHistory": [
          {
            "period": {
              "start": "2024-04-24T08:45:00+00:00"
            },
            "status": "waitlist"
          },
          {
            "period": {
              "end": "2024-01-17T11:30:00+00:00",
              "start": "2023-11-13T08:00:00+00:00"
            },
            "status": "active"
          },
          {
            "period": {
              "end": "2024-01-17T11:30:00+00:00",
              "start": "2024-01-17T11:30:00+00:00"
            },
            "status": "finished"
          }
        ],
        "type": [
          {
            "coding": [
              {
                "code": "cancer",
                "display": "Cancer Management Care",
                "system": "http://terminology.kemkes.go.id/CodeSystem/episodeofcare-type"
              }
            ]
          }
        ]
      }
    },
    {
      "fullUrl": "ServiceRequest/8cfbbc00-0b76-49ff-9f66-6a468bc0376f",
      "resource": {
        "authoredOn": "2023-11-07T08:30:00+00:00",
        "category": [
          {
            "coding": [
              {
                "code": "277132007",
                "display": "Therapeutic procedure",
                "system": "http://snomed.info/sct"
              }
            ]
          }
        ],
        "code": {
          "coding": [
            {
              "code": "128303001",
              "display": "Surgical removal",
              "system": "http://snomed.info/sct"
            }
          ],
          "text": "Operasi pengangkatan tumor"
        },
        "encounter": {
          "reference": "Encounter/5d2aaa80-559b-470f-b613-b5a201916062"
        },
        "id": "8cfbbc00-0b76-49ff-9f66-6a468bc0376f",
        "identifier": [
          {
            "system": "http://sys-ids.kemkes.go.id/servicerequest/6e3e3a13-8114-44b2-90b3-bbaeeeebf9f0",
            "value": "00001"
          }
        ],
        "intent": "original-order",
        "meta": {
          "lastUpdated": "2025-08-08T05:59:25.166630+00:00",
          "versionId": "MTc1NDYzMjc2NTE2NjYzMDAwMA"
        },
        "occurrenceDateTime": "2023-11-13T08:30:00+00:00",
        "performer": [
          {
            "display": "Fatma",
            "reference": "Practitioner/10009880728"
          }
        ],
        "priority": "routine",
        "reasonCode": [
          {
            "coding": [
              {
                "code": "C50.2",
                "display": "Malignant neoplasm: Upper-inner quadrant of breast",
                "system": "http://hl7.org/fhir/sid/icd-10"
              }
            ],
            "text": "Rencana operasi pengangkatan tumor"
          }
        ],
        "reasonReference": [
          {
            "reference": "Condition/2bbedc42-87e5-4ea6-bc6d-5691b3c313dd"
          }
        ],
        "requester": {
          "display": "Dr. Alexander",
          "reference": "Practitioner/10009880728"
        },
        "resourceType": "ServiceRequest",
        "status": "active",
        "subject": {
          "display": "Claudia Sintia",
          "reference": "Patient/P03647103112"
        }
      }
    },
    {
      "fullUrl": "Condition/2bbedc42-87e5-4ea6-bc6d-5691b3c313dd",
      "resource": {
        "category": [
          {
            "coding": [
              {
                "code": "encounter-diagnosis",
                "display": "Encounter Diagnosis",
                "system": "http://terminology.hl7.org/CodeSystem/condition-category"
              }
            ]
          }
        ],
        "clinicalStatus": {
          "coding": [
            {
              "code": "active",
              "display": "Active",
              "system": "http://terminology.hl7.org/CodeSystem/condition-clinical"
            }
          ]
        },
        "code": {
          "coding": [
            {
              "code": "C50.2",
              "display": "Malignant neoplasm: Upper-inner quadrant of breast",
              "system": "http://hl7.org/fhir/sid/icd-10"
            }
          ]
        },
        "encounter": {
          "reference": "Encounter/5d2aaa80-559b-470f-b613-b5a201916062"
        },
        "evidence": [
          {
            "code": [
              {
                "coding": [
                  {
                    "code": "373800009",
                    "display": "Cancer diagnosis based on primary site histological evidence",
                    "system": "http://snomed.info/sct"
                  }
                ]
              }
            ]
          }
        ],
        "id": "2bbedc42-87e5-4ea6-bc6d-5691b3c313dd",
        "identifier": [],
        "meta": {
          "lastUpdated": "2025-08-08T05:54:04.943763+00:00",
          "versionId": "MTc1NDYzMjQ0NDk0Mzc2MzAwMA"
        },
        "note": [
          {
            "text": "Pasien terkonfirmasi kanker payudara dengan pemeriksaan pertama tanggal 6-11-2023"
          }
        ],
        "onsetDateTime": "2023-11-13T08:00:00+00:00",
        "recordedDate": "2023-11-13T08:00:00+00:00",
        "resourceType": "Condition",
        "subject": {
          "display": "Claudia Sintia",
          "reference": "Patient/P03647103112"
        },
        "verificationStatus": {
          "coding": [
            {
              "code": "confirmed",
              "display": "Confirmed",
              "system": "http://terminology.hl7.org/CodeSystem/condition-ver-status"
            }
          ]
        }
      }
    },
    {
      "fullUrl": "ServiceRequest/ebe9bf58-8080-44e8-9a59-049f368ef8b0",
      "resource": {
        "authoredOn": "2023-11-13T08:30:00+00:00",
        "category": [
          {
            "coding": [
              {
                "code": "306098008",
                "display": "Self-referral",
                "system": "http://snomed.info/sct"
              }
            ]
          }
        ],
        "code": {
          "coding": [
            {
              "code": "737481003",
              "display": "Inpatient care management (procedure)",
              "system": "http://snomed.info/sct"
            }
          ],
          "text": "Rencana rawat inap untuk tindakan operasi pengangkatan tumor"
        },
        "encounter": {
          "reference": "Encounter/5d2aaa80-559b-470f-b613-b5a201916062"
        },
        "id": "ebe9bf58-8080-44e8-9a59-049f368ef8b0",
        "identifier": [
          {
            "system": "http://sys-ids.kemkes.go.id/servicerequest/6e3e3a13-8114-44b2-90b3-bbaeeeebf9f0",
            "value": "72527"
          }
        ],
        "intent": "original-order",
        "meta": {
          "lastUpdated": "2025-08-08T05:58:37.283242+00:00",
          "versionId": "MTc1NDYzMjcxNzI4MzI0MjAwMA"
        },
        "occurrenceDateTime": "2023-11-13T08:30:00+00:00",
        "performer": [
          {
            "display": "Fatma",
            "reference": "Practitioner/10009880728"
          }
        ],
        "priority": "routine",
        "reasonCode": [
          {
            "coding": [
              {
                "code": "C50.2",
                "display": "Malignant neoplasm: Upper-inner quadrant of breast",
                "system": "http://hl7.org/fhir/sid/icd-10"
              }
            ],
            "text": "Rencana rawat inap untuk tindakan operasi pengangkatan tumor"
          }
        ],
        "reasonReference": [
          {
            "reference": "Condition/2bbedc42-87e5-4ea6-bc6d-5691b3c313dd"
          }
        ],
        "requester": {
          "display": "Dr. Alexander",
          "reference": "Practitioner/10009880728"
        },
        "resourceType": "ServiceRequest",
        "status": "active",
        "subject": {
          "display": "Claudia Sintia",
          "reference": "Patient/P03647103112"
        }
      }
    },
    {
      "fullUrl": "Organization/6e3e3a13-8114-44b2-90b3-bbaeeeebf9f0",
      "resource": {
        "resourceType": "Organization",
        "id": "6e3e3a13-8114-44b2-90b3-bbaeeeebf9f0",
        "name": "RS Contoh Santosa",
        "identifier": [
          {
            "system": "http://sys-ids.kemkes.go.id/organization",
            "value": "10000001"
          }
        ]
      }
    },
    {
      "fullUrl": "Observation/obs-keluhan-utama",
      "resource": {
        "resourceType": "Observation",
        "id": "obs-keluhan-utama",
        "status": "final",
        "category": [
          {
            "coding": [
              {
                "system": "http://terminology.hl7.org/CodeSystem/observation-category",
                "code": "survey"
              }
            ]
          }
        ],
        "code": {
          "coding": [
            {
              "system": "http://snomed.info/sct",
              "code": "162467007",
              "display": "Chief complaint"
            }
          ]
        },
        "subject": {
          "reference": "Patient/P03647103112"
        },
        "encounter": {
          "reference": "Encounter/9939c7ba-305b-4398-b366-6ee9458fe21f"
        },
        "effectiveDateTime": "2023-03-01T09:05:00+07:00",
        "valueString": "Pusing mendadak, baal sisi kanan, berlangsung 1 jam sebelum kunjungan."
      }
    },
    {
      "fullUrl": "Encounter/9939c7ba-305b-4398-b366-6ee9458fe21f",
      "resource": {
        "class": {
          "code": "EMER",
          "display": "emergency",
          "system": "http://terminology.hl7.org/CodeSystem/v3-ActCode"
        },
        "diagnosis": [
          {
            "condition": {
              "display": "Cerebral infarction due unspecified occlusion or stenos cerebrl arteries",
              "reference": "Condition/f6ae9b21-187f-43bc-ab0f-995a1782d92b"
            },
            "use": {
              "coding": [
                {
                  "code": "DD",
                  "display": "Discharge diagnosis ",
                  "system": "http://terminology.hl7.org/CodeSystem/diagnosis-role"
                }
              ]
            }
          }
        ],
        "episodeOfCare": [
          {
            "reference": "EpisodeOfCare/aecb5ec2-a860-4376-805f-3b496378a63d"
          }
        ],
        "hospitalization": {
          "dischargeDisposition": {
            "coding": [
              {
                "code": "oth",
                "display": "Other",
                "system": "http://terminology.hl7.org/CodeSystem/discharge-disposition"
              }
            ],
            "text": "Pasien dipindahkan dari IGD ke rawat inap."
          }
        },
        "id": "9939c7ba-305b-4398-b366-6ee9458fe21f",
        "identifier": [
          {
            "system": "http://sys-ids.kemkes.go.id/encounter/6e3e3a13-8114-44b2-90b3-bbaeeeebf9f0",
            "value": "2025080826229"
          }
        ],
        "location": [
          {
            "extension": [
              {
                "extension": [
                  {
                    "url": "value",
                    "valueCodeableConcept": {
                      "coding": [
                        {
                          "code": "reguler",
                          "display": "Kelas Reguler",
                          "system": "http://terminology.kemkes.go.id/CodeSystem/locationServiceClass-Outpatient"
                        }
                      ]
                    }
                  },
                  {
                    "url": "upgradeClassIndicator",
                    "valueCodeableConcept": {
                      "coding": [
                        {
                          "code": "kelas-tetap",
                          "display": "Kelas Tetap Perawatan",
                          "system": "http://terminology.kemkes.go.id/CodeSystem/locationUpgradeClass"
                        }
                      ]
                    }
                  }
                ],
                "url": "https://fhir.kemkes.go.id/r4/StructureDefinition/ServiceClass"
              }
            ],
            "location": {
              "display": "Ruangan Triase, Instalasi Gawat Darurat, Gedung Utama, Lantai 1",
              "reference": "Location/a482e8d2-870e-45f2-a067-cccf633f0cde"
            },
            "period": {
              "end": "2023-03-01T02:10:00+00:00",
              "start": "2023-03-01T02:01:00+00:00"
            }
          },
          {
            "extension": [
              {
                "extension": [
                  {
                    "url": "value",
                    "valueCodeableConcept": {
                      "coding": [
                        {
                          "code": "reguler",
                          "display": "Kelas Reguler",
                          "system": "http://terminology.kemkes.go.id/CodeSystem/locationServiceClass-Outpatient"
                        }
                      ]
                    }
                  },
                  {
                    "url": "upgradeClassIndicator",
                    "valueCodeableConcept": {
                      "coding": [
                        {
                          "code": "kelas-tetap",
                          "display": "Kelas Tetap Perawatan",
                          "system": "http://terminology.kemkes.go.id/CodeSystem/locationUpgradeClass"
                        }
                      ]
                    }
                  }
                ],
                "url": "https://fhir.kemkes.go.id/r4/StructureDefinition/ServiceClass"
              }
            ],
            "location": {
              "display": "Ruangan Resusitasi, Instalasi Gawat Darurat, Gedung Utama, Lantai 1",
              "reference": "Location/a482e8d2-870e-45f2-a067-cccf633f0cde"
            },
            "period": {
              "end": "2023-03-01T03:10:00+00:00",
              "start": "2023-03-01T02:10:00+00:00"
            }
          }
        ],
        "meta": {
          "lastUpdated": "2025-08-08T08:28:48.033625+00:00",
          "versionId": "MTc1NDY0MTcyODAzMzYyNTAwMA"
        },
        "participant": [
          {
            "individual": {
              "display": "Dr. Alexander",
              "reference": "Practitioner/10009880728"
            },
            "type": [
              {
                "coding": [
                  {
                    "code": "ATND",
                    "display": "attender",
                    "system": "http://terminology.hl7.org/CodeSystem/v3-ParticipationType"
                  }
                ]
              }
            ]
          }
        ],
        "period": {
          "end": "2023-03-01T03:10:00+00:00",
          "start": "2023-03-01T02:00:00+00:00"
        },
        "resourceType": "Encounter",
        "serviceProvider": {
          "reference": "Organization/6e3e3a13-8114-44b2-90b3-bbaeeeebf9f0"
        },
        "status": "finished",
        "statusHistory": [
          {
            "period": {
              "end": "2023-03-01T02:01:00+00:00",
              "start": "2023-03-01T02:00:00+00:00"
            },
            "status": "arrived"
          },
          {
            "period": {
              "end": "2023-03-01T02:10:00+00:00",
              "start": "2023-03-01T02:01:00+00:00"
            },
            "status": "triaged"
          },
          {
            "period": {
              "end": "2023-03-01T03:10:00+00:00",
              "start": "2023-03-01T02:10:00+00:00"
            },
            "status": "in-progress"
          },
          {
            "period": {
              "end": "2023-03-01T03:10:00+00:00",
              "start": "2023-03-01T03:10:00+00:00"
            },
            "status": "finished"
          }
        ],
        "subject": {
          "display": "Claudia Sintia",
          "reference": "Patient/P03647103112"
        }
      }
    },
    {
      "fullUrl": "EpisodeOfCare/aecb5ec2-a860-4376-805f-3b496378a63d",
      "resource": {
        "id": "aecb5ec2-a860-4376-805f-3b496378a63d",
        "identifier": [
          {
            "system": "http://sys-ids.kemkes.go.id/episode-of-care/6e3e3a13-8114-44b2-90b3-bbaeeeebf9f0",
            "value": "EOC1023456"
          },
          {
            "system": "http://sys-ids.kemkes.go.id/episode-of-care/suspect-id/",
            "value": "CVDS202511000003108"
          },
          {
            "system": "http://sys-ids.kemkes.go.id/episode-of-care/registry-id/",
            "value": "CVDC202511000000039"
          }
        ],
        "managingOrganization": {
          "reference": "Organization/6e3e3a13-8114-44b2-90b3-bbaeeeebf9f0"
        },
        "meta": {
          "lastUpdated": "2025-08-08T08:29:56.957720+00:00",
          "versionId": "MTc1NDY0MTc5Njk1NzcyMDAwMA"
        },
        "patient": {
          "display": "Claudia Sintia",
          "reference": "Patient/P03647103112"
        },
        "period": {
          "start": "2023-02-01T02:40:00+00:00"
        },
        "resourceType": "EpisodeOfCare",
        "status": "active",
        "statusHistory": [
          {
            "period": {
              "end": "2023-03-01T02:40:00+00:00",
              "start": "2023-02-01T02:40:00+00:00"
            },
            "status": "waitlist"
          },
          {
            "period": {
              "start": "2023-03-01T02:40:00+00:00"
            },
            "status": "active"
          }
        ],
        "type": [
          {
            "coding": [
              {
                "code": "CVD",
                "display": "Cerebrovascular Disease",
                "system": "http://terminology.kemkes.go.id/CodeSystem/episodeofcare-type"
              }
            ]
          }
        ]
      }
    },
    {
      "fullUrl": "Condition/a3e52e62-10b9-4d54-8b2b-fd6585737972",
      "resource": {
        "resourceType": "Condition",
        "id": "a3e52e62-10b9-4d54-8b2b-fd6585737972",
        "meta": {
          "lastUpdated": "2025-08-06T08:36:45.928737+00:00",
          "versionId": "MTc1NDQ2OTQwNTkyODczNzAwMA"
        },
        "identifier": [],
        "clinicalStatus": {
          "coding": [
            {
              "system": "http://terminology.hl7.org/CodeSystem/condition-clinical",
              "code": "active",
              "display": "Active"
            }
          ]
        },
        "category": [
          {
            "coding": [
              {
                "system": "http://terminology.hl7.org/CodeSystem/condition-category",
                "code": "problem-list-item",
                "display": "Problem List Item"
              }
            ]
          }
        ],
        "code": {
          "coding": [
            {
              "system": "http://snomed.info/sct",
              "code": "161527007",
              "display": "H/O: asthma"
            }
          ]
        },
        "subject": {
          "reference": "Patient/P03647103112",
          "display": "Claudia Sintia"
        },
        "encounter": {
          "reference": "Encounter/654e2d68-d24e-4ab4-b51e-9eb9bd85192e"
        },
        "recordedDate": "2024-03-14T02:17:00+00:00"
      }
    },
    {
      "fullUrl": "Encounter/654e2d68-d24e-4ab4-b51e-9eb9bd85192e",
      "resource": {
        "class": {
          "code": "AMB",
          "display": "Ambulatory",
          "system": "http://terminology.hl7.org/CodeSystem/v3-ActCode"
        },
        "diagnosis": [
          {
            "condition": {
              "display": "Essential (primary) hypertension",
              "reference": "Condition/1a08a280-b968-46e9-bf48-beae115c9ad4"
            },
            "rank": 1,
            "use": {
              "coding": [
                {
                  "code": "DD",
                  "display": "Discharge diagnosis",
                  "system": "http://terminology.hl7.org/CodeSystem/diagnosis-role"
                }
              ]
            }
          },
          {
            "condition": {
              "display": "Chronic ischaemic heart disease, unspecified",
              "reference": "Condition/3b82b38f-20a9-4253-a7a7-0673fe71d56a"
            },
            "rank": 2,
            "use": {
              "coding": [
                {
                  "code": "DD",
                  "display": "Discharge diagnosis",
                  "system": "http://terminology.hl7.org/CodeSystem/diagnosis-role"
                }
              ]
            }
          }
        ],
        "episodeOfCare": [
          {
            "reference": "EpisodeOfCare/533de92c-8d1f-4b77-98a2-748a0189b6a6"
          }
        ],
        "hospitalization": {
          "dischargeDisposition": {
            "coding": [
              {
                "code": "home",
                "display": "Home",
                "system": "http://terminology.hl7.org/CodeSystem/discharge-disposition"
              }
            ],
            "text": "Anjuran dokter untuk pulang dan kontrol kembali"
          }
        },
        "id": "654e2d68-d24e-4ab4-b51e-9eb9bd85192e",
        "identifier": [
          {
            "system": "http://sys-ids.kemkes.go.id/encounter/6e3e3a13-8114-44b2-90b3-bbaeeeebf9f0",
            "value": "2024041692295"
          }
        ],
        "location": [
          {
            "extension": [
              {
                "extension": [
                  {
                    "url": "value",
                    "valueCodeableConcept": {
                      "coding": [
                        {
                          "code": "reguler",
                          "display": "Kelas Reguler",
                          "system": "http://terminology.kemkes.go.id/CodeSystem/locationServiceClass-Outpatient"
                        }
                      ]
                    }
                  },
                  {
                    "url": "upgradeClassIndicator",
                    "valueCodeableConcept": {
                      "coding": [
                        {
                          "code": "kelas-tetap",
                          "display": "Kelas Tetap Perawatan",
                          "system": "http://terminology.kemkes.go.id/CodeSystem/locationUpgradeClass"
                        }
                      ]
                    }
                  }
                ],
                "url": "https://fhir.kemkes.go.id/r4/StructureDefinition/ServiceClass"
              }
            ],
            "location": {
              "display": "Poli Umum",
              "reference": "Location/a482e8d2-870e-45f2-a067-cccf633f0cde"
            },
            "period": {
              "end": "2024-03-14T03:16:00+00:00",
              "start": "2024-03-14T02:00:00+00:00"
            }
          }
        ],
        "meta": {
          "lastUpdated": "2025-08-07T02:04:22.654018+00:00",
          "versionId": "MTc1NDUzMjI2MjY1NDAxODAwMA"
        },
        "participant": [
          {
            "individual": {
              "display": "Dr. Alexander",
              "reference": "Practitioner/10009880728"
            },
            "type": [
              {
                "coding": [
                  {
                    "code": "ATND",
                    "display": "attender",
                    "system": "http://terminology.hl7.org/CodeSystem/v3-ParticipationType"
                  }
                ]
              }
            ]
          }
        ],
        "period": {
          "end": "2024-03-14T03:16:00+00:00",
          "start": "2024-03-14T02:00:00+00:00"
        },
        "resourceType": "Encounter",
        "serviceProvider": {
          "reference": "Organization/6e3e3a13-8114-44b2-90b3-bbaeeeebf9f0"
        },
        "status": "finished",
        "statusHistory": [
          {
            "period": {
              "end": "2024-03-14T02:15:00+00:00",
              "start": "2024-03-14T02:00:00+00:00"
            },
            "status": "arrived"
          },
          {
            "period": {
              "end": "2024-03-14T03:16:00+00:00",
              "start": "2024-03-14T02:15:00+00:00"
            },
            "status": "in-progress"
          },
          {
            "period": {
              "end": "2024-03-14T03:16:00+00:00",
              "start": "2024-03-14T03:16:00+00:00"
            },
            "status": "finished"
          }
        ],
        "subject": {
          "display": "Claudia Sintia",
          "reference": "Patient/P03647103112"
        }
      }
    },
    {
      "fullUrl": "EpisodeOfCare/533de92c-8d1f-4b77-98a2-748a0189b6a6",
      "resource": {
        "id": "533de92c-8d1f-4b77-98a2-748a0189b6a6",
        "identifier": [
          {
            "system": "http://sys-ids.kemkes.go.id/episode-of-care/10000144",
            "value": "EOC2408210001"
          },
          {
            "system": "http://sys-ids.kemkes.go.id/episode-of-care/suspect-id/",
            "value": "CADS202435000000018"
          },
          {
            "system": "http://sys-ids.kemkes.go.id/episode-of-care/registry-id/",
            "value": "CADC202435000000042"
          }
        ],
        "managingOrganization": {
          "reference": "Organization/10000144"
        },
        "meta": {
          "lastUpdated": "2024-08-21T08:57:41.222570+00:00",
          "versionId": "MTcyNDIzMDY2MTIyMjU3MDAwMA"
        },
        "patient": {
          "display": "pat***",
          "reference": "Patient/P03647103112"
        },
        "period": {
          "start": "2024-08-21T06:59:20+00:00"
        },
        "resourceType": "EpisodeOfCare",
        "status": "active",
        "statusHistory": [
          {
            "period": {
              "end": "2024-08-21T07:46:57+00:00",
              "start": "2024-08-21T06:59:20+00:00"
            },
            "status": "waitlist"
          },
          {
            "period": {
              "start": "2024-08-21T07:46:57+00:00"
            },
            "status": "active"
          }
        ],
        "type": [
          {
            "coding": [
              {
                "code": "CAD",
                "display": "Coronary Arterial Disease Management Care",
                "system": "http://terminology.kemkes.go.id/CodeSystem/episodeofcare-type"
              }
            ]
          }
        ]
      }
    },
    {
      "fullUrl": "Condition/1a08a280-b968-46e9-bf48-beae115c9ad4",
      "resource": {
        "resourceType": "Condition",
        "id": "1a08a280-b968-46e9-bf48-beae115c9ad4",
        "meta": {
          "lastUpdated": "2025-08-06T08:44:43.968421+00:00",
          "versionId": "MTc1NDQ2OTg4Mzk2ODQyMTAwMA"
        },
        "identifier": [],
        "clinicalStatus": {
          "coding": [
            {
              "system": "http://terminology.hl7.org/CodeSystem/condition-clinical",
              "code": "active",
              "display": "Active"
            }
          ]
        },
        "category": [
          {
            "coding": [
              {
                "system": "http://terminology.hl7.org/CodeSystem/condition-category",
                "code": "problem-list-item",
                "display": "Problem List Item"
              }
            ]
          }
        ],
        "code": {
          "coding": [
            {
              "system": "http://snomed.info/sct",
              "code": "80313002",
              "display": "Palpitations"
            }
          ]
        },
        "subject": {
          "reference": "Patient/P03647103112",
          "display": "Claudia Sintia"
        },
        "encounter": {
          "reference": "Encounter/654e2d68-d24e-4ab4-b51e-9eb9bd85192e"
        },
        "onsetDateTime": "2024-03-14T01:10:00+00:00",
        "recordedDate": "2024-03-14T02:16:00+00:00"
      }
    },
    {
      "fullUrl": "Condition/3b82b38f-20a9-4253-a7a7-0673fe71d56a",
      "resource": {
        "resourceType": "Condition",
        "id": "3b82b38f-20a9-4253-a7a7-0673fe71d56a",
        "meta": {
          "lastUpdated": "2025-08-07T01:45:03.663304+00:00",
          "versionId": "MTc1NDUzMTEwMzY2MzMwNDAwMA"
        },
        "identifier": [],
        "clinicalStatus": {
          "coding": [
            {
              "system": "http://terminology.hl7.org/CodeSystem/condition-clinical",
              "code": "active",
              "display": "Active"
            }
          ]
        },
        "category": [
          {
            "coding": [
              {
                "system": "http://terminology.hl7.org/CodeSystem/condition-category",
                "code": "problem-list-item",
                "display": "Problem List Item"
              }
            ]
          }
        ],
        "code": {
          "coding": [
            {
              "system": "http://snomed.info/sct",
              "code": "194828000",
              "display": "Angina pectoris"
            }
          ]
        },
        "subject": {
          "reference": "Patient/P03647103112",
          "display": "Claudia Sintia"
        },
        "encounter": {
          "reference": "Encounter/654e2d68-d24e-4ab4-b51e-9eb9bd85192e"
        },
        "onsetDateTime": "2024-03-14T01:10:00+00:00",
        "recordedDate": "2024-03-14T02:16:00+00:00"
      }
    },
    {
      "fullUrl": "Observation/obs-mata-001",
      "resource": {
        "resourceType": "Observation",
        "id": "obs-mata-001",
        "status": "final",
        "category": [
          {
            "coding": [
              {
                "system": "http://terminology.hl7.org/CodeSystem/observation-category",
                "code": "exam",
                "display": "Exam"
              }
            ]
          }
        ],
        "code": {
          "coding": [
            {
              "system": "http://loinc.org",
              "code": "32451-7",
              "display": "Eye physical exam Narrative"
            }
          ]
        },
        "subject": {
          "reference": "Patient/P03647103112"
        },
        "effectiveDateTime": "2023-06-04T10:07:00+00:00",
        "valueString": "Konjungtiva anemis ringan, sklera ikterik (-)."
      }
    },
    {
      "fullUrl": "DiagnosticReport/dr-lab-001",
      "resource": {
        "resourceType": "DiagnosticReport",
        "id": "dr-lab-001",
        "status": "final",
        "category": [
          {
            "coding": [
              {
                "system": "http://terminology.hl7.org/CodeSystem/v2-0074",
                "code": "LAB",
                "display": "Laboratory"
              }
            ]
          }
        ],
        "code": {
          "coding": [
            {
              "system": "http://loinc.org",
              "code": "11502-2",
              "display": "Laboratory report"
            }
          ]
        },
        "subject": {
          "reference": "Patient/P03647103112"
        },
        "effectiveDateTime": "2023-06-04T10:35:00+00:00",
        "issued": "2023-06-04T10:40:00+00:00",
        "specimen": [
          {
            "reference": "Specimen/specimen-001"
          }
        ],
        "result": [
          {
            "reference": "Observation/obs-lab-hb-001"
          },
          {
            "reference": "Observation/obs-lab-wbc-001"
          }
        ],
        "basedOn": [
          {
            "reference": "ServiceRequest/sr-lab-001"
          }
        ],
        "conclusion": "Hb rendah ringan. Leukosit normal."
      }
    },
    {
      "fullUrl": "Observation/obs-lab-hb-001",
      "resource": {
        "resourceType": "Observation",
        "id": "obs-lab-hb-001",
        "status": "final",
        "category": [
          {
            "coding": [
              {
                "system": "http://terminology.hl7.org/CodeSystem/observation-category",
                "code": "laboratory",
                "display": "Laboratory"
              }
            ]
          }
        ],
        "code": {
          "coding": [
            {
              "system": "http://loinc.org",
              "code": "718-7",
              "display": "Hemoglobin [Mass/volume] in Blood"
            }
          ]
        },
        "subject": {
          "reference": "Patient/P03647103112"
        },
        "effectiveDateTime": "2023-06-04T10:35:00+00:00",
        "specimen": {
          "reference": "Specimen/specimen-001"
        },
        "valueQuantity": {
          "value": 10.2,
          "unit": "g/dL",
          "system": "http://unitsofmeasure.org",
          "code": "g/dL"
        }
      }
    },
    {
      "fullUrl": "Specimen/specimen-001",
      "resource": {
        "resourceType": "Specimen",
        "id": "specimen-001",
        "type": {
          "coding": [
            {
              "system": "http://snomed.info/sct",
              "code": "122555007",
              "display": "Venous blood specimen"
            }
          ]
        },
        "subject": {
          "reference": "Patient/P03647103112"
        },
        "receivedTime": "2023-06-04T10:20:00+00:00",
        "collection": {
          "collectedDateTime": "2023-06-04T10:12:00+00:00"
        }
      }
    },
    {
      "fullUrl": "ServiceRequest/sr-lab-001",
      "resource": {
        "resourceType": "ServiceRequest",
        "id": "sr-lab-001",
        "status": "active",
        "intent": "order",
        "code": {
          "coding": [
            {
              "system": "http://loinc.org",
              "code": "24360-0",
              "display": "Complete blood count (hemogram) panel - Blood by Automated count"
            }
          ]
        },
        "subject": {
          "reference": "Patient/P03647103112"
        },
        "authoredOn": "2023-06-04T10:10:00+00:00",
        "requester": {
          "reference": "Practitioner/10009880728"
        },
        "encounter": {
          "reference": "Encounter/enc-igd-20230604"
        }
      }
    },
    {
      "fullUrl": "Encounter/enc-igd-20230604",
      "resource": {
        "resourceType": "Encounter",
        "id": "enc-igd-20230604",
        "status": "finished",
        "class": {
          "system": "http://terminology.hl7.org/CodeSystem/v3-ActCode",
          "code": "EMER",
          "display": "emergency"
        },
        "subject": {
          "reference": "Patient/P03647103112"
        },
        "period": {
          "start": "2023-06-04T09:45:00+00:00",
          "end": "2023-06-04T12:00:00+00:00"
        },
        "serviceProvider": {
          "reference": "Organization/6e3e3a13-8114-44b2-90b3-bbaeeeebf9f0"
        },
        "participant": [
          {
            "individual": {
              "reference": "Practitioner/10009880728"
            }
          }
        ],
        "reasonCode": [
          {
            "coding": [
              {
                "system": "http://snomed.info/sct",
                "code": "38670004",
                "display": "Vaginal bleeding"
              }
            ]
          }
        ]
      }
    },
    {
      "fullUrl": "Observation/obs-lab-wbc-001",
      "resource": {
        "resourceType": "Observation",
        "id": "obs-lab-wbc-001",
        "status": "final",
        "category": [
          {
            "coding": [
              {
                "system": "http://terminology.hl7.org/CodeSystem/observation-category",
                "code": "laboratory",
                "display": "Laboratory"
              }
            ]
          }
        ],
        "code": {
          "coding": [
            {
              "system": "http://loinc.org",
              "code": "6690-2",
              "display": "Leukocytes [#/volume] in Blood by Automated count"
            }
          ]
        },
        "subject": {
          "reference": "Patient/P03647103112"
        },
        "effectiveDateTime": "2023-06-04T10:35:00+00:00",
        "specimen": {
          "reference": "Specimen/specimen-001"
        },
        "valueQuantity": {
          "value": 8.9,
          "unit": "10^3/uL",
          "system": "http://unitsofmeasure.org",
          "code": "10*3/uL"
        }
      }
    },
    {
      "fullUrl": "Observation/obs-bb",
      "resource": {
        "resourceType": "Observation",
        "id": "obs-bb",
        "status": "final",
        "category": [
          {
            "coding": [
              {
                "system": "http://terminology.hl7.org/CodeSystem/observation-category",
                "code": "vital-signs"
              }
            ]
          }
        ],
        "code": {
          "coding": [
            {
              "system": "http://loinc.org",
              "code": "29463-7",
              "display": "Body weight"
            }
          ]
        },
        "subject": {
          "reference": "Patient/P03647103112"
        },
        "encounter": {
          "reference": "Encounter/9939c7ba-305b-4398-b366-6ee9458fe21f"
        },
        "effectiveDateTime": "2023-03-01T09:10:00+07:00",
        "performer": [
          {
            "reference": "Practitioner/10009880728"
          }
        ],
        "valueQuantity": {
          "value": 74,
          "unit": "kg",
          "system": "http://unitsofmeasure.org",
          "code": "kg"
        }
      }
    },
    {
      "fullUrl": "Observation/d63d9b5d-aa98-4405-8c25-e4e8cc62a073",
      "resource": {
        "category": [
          {
            "coding": [
              {
                "code": "exam",
                "display": "Exam",
                "system": "http://terminology.hl7.org/CodeSystem/observation-category"
              }
            ]
          }
        ],
        "code": {
          "coding": [
            {
              "code": "75859-9",
              "display": "Modified rankin scale",
              "system": "http://loinc.org"
            }
          ]
        },
        "effectiveDateTime": "2023-03-01T02:15:00+00:00",
        "encounter": {
          "reference": "Encounter/9939c7ba-305b-4398-b366-6ee9458fe21f"
        },
        "id": "d63d9b5d-aa98-4405-8c25-e4e8cc62a073",
        "identifier": [],
        "issued": "2023-03-01T02:15:00+00:00",
        "meta": {
          "lastUpdated": "2025-08-08T08:05:54.613512+00:00",
          "versionId": "MTc1NDY0MDM1NDYxMzUxMjAwMA"
        },
        "performer": [
          {
            "reference": "Practitioner/10009880728"
          }
        ],
        "resourceType": "Observation",
        "status": "final",
        "subject": {
          "reference": "Patient/P03647103112"
        },
        "valueCodeableConcept": {
          "coding": [
            {
              "code": "LA6114-8",
              "display": "3",
              "system": "http://loinc.org"
            }
          ]
        }
      }
    },
    {
      "fullUrl": "Observation/230fbde5-49b7-4738-875e-b23e8472edd0",
      "resource": {
        "category": [
          {
            "coding": [
              {
                "code": "survey",
                "display": "Survey",
                "system": "http://terminology.hl7.org/CodeSystem/observation-category"
              }
            ]
          }
        ],
        "code": {
          "coding": [
            {
              "code": "370992007",
              "display": "Dyslipidemia",
              "system": "http://snomed.info/sct"
            }
          ]
        },
        "component": [
          {
            "code": {
              "coding": [
                {
                  "code": "715047008",
                  "display": "Does obtain medication",
                  "system": "http://snomed.info/sct"
                }
              ]
            },
            "valueBoolean": true
          },
          {
            "code": {
              "coding": [
                {
                  "code": "OC000180",
                  "display": "Intensitas Obat Statin",
                  "system": "http://terminology.kemkes.go.id/CodeSystem/clinical-term"
                }
              ]
            },
            "valueCodeableConcept": {
              "coding": [
                {
                  "code": "OV000409",
                  "display": "Statin Intensitas Rendah",
                  "system": "http://terminology.kemkes.go.id/CodeSystem/clinical-term"
                }
              ]
            }
          }
        ],
        "effectiveDateTime": "2023-03-01T02:10:00+00:00",
        "encounter": {
          "reference": "Encounter/9939c7ba-305b-4398-b366-6ee9458fe21f"
        },
        "id": "230fbde5-49b7-4738-875e-b23e8472edd0",
        "identifier": [],
        "issued": "2023-03-01T02:10:00+00:00",
        "meta": {
          "lastUpdated": "2025-08-08T07:58:37.393907+00:00",
          "versionId": "MTc1NDYzOTkxNzM5MzkwNzAwMA"
        },
        "performer": [
          {
            "reference": "Practitioner/10009880728"
          }
        ],
        "resourceType": "Observation",
        "status": "final",
        "subject": {
          "display": "Claudia Sintia",
          "reference": "Patient/P03647103112"
        },
        "valueBoolean": true
      }
    },
    {
      "fullUrl": "Observation/8af8ae78-5526-4654-89ff-ec9dfcd24041",
      "resource": {
        "resourceType": "Observation",
        "id": "8af8ae78-5526-4654-89ff-ec9dfcd24041",
        "meta": {
          "lastUpdated": "2025-08-06T08:53:55.179584+00:00",
          "versionId": "MTc1NDQ3MDQzNTE3OTU4NDAwMA"
        },
        "identifier": [],
        "status": "final",
        "category": [
          {
            "coding": [
              {
                "system": "http://terminology.hl7.org/CodeSystem/observation-category",
                "code": "exam",
                "display": "Exam"
              }
            ]
          }
        ],
        "code": {
          "coding": [
            {
              "system": "http://loinc.org",
              "code": "34534-8",
              "display": "12 lead EKG panel"
            }
          ]
        },
        "subject": {
          "reference": "Patient/P03647103112"
        },
        "encounter": {
          "reference": "Encounter/654e2d68-d24e-4ab4-b51e-9eb9bd85192e"
        },
        "effectiveDateTime": "2024-03-14T02:50:00+00:00",
        "issued": "2024-03-14T03:05:00+00:00",
        "performer": [
          {
            "reference": "Practitioner/10009880728"
          }
        ],
        "valueString": "Hasil pemeriksaan EKG menunjukkan adanya gangguan pada jantung",
        "component": [
          {
            "code": {
              "coding": [
                {
                  "system": "http://snomed.info/sct",
                  "code": "426783006",
                  "display": "Electrocardiogram: sinus rhythm"
                }
              ]
            },
            "valueBoolean": false
          },
          {
            "code": {
              "coding": [
                {
                  "system": "http://snomed.info/sct",
                  "code": "164889003",
                  "display": "Electrocardiographic atrial fibrillation"
                }
              ]
            },
            "valueBoolean": true
          },
          {
            "code": {
              "coding": [
                {
                  "system": "http://snomed.info/sct",
                  "code": "76388001",
                  "display": "ST segment elevation"
                }
              ]
            },
            "valueBoolean": true
          },
          {
            "code": {
              "coding": [
                {
                  "system": "http://snomed.info/sct",
                  "code": "26141007",
                  "display": "ST segment depression"
                }
              ]
            },
            "valueBoolean": true
          },
          {
            "code": {
              "coding": [
                {
                  "system": "http://snomed.info/sct",
                  "code": "59931005",
                  "display": "Inverted T wave"
                }
              ]
            },
            "valueBoolean": true
          }
        ]
      }
    },
    {
      "fullUrl": "Observation/df02e44c-61c1-4dea-a60b-5d3af04e78ab",
      "resource": {
        "bodySite": {
          "coding": [
            {
              "code": "368209003",
              "display": "Right arm",
              "system": "http://snomed.info/sct"
            }
          ]
        },
        "category": [
          {
            "coding": [
              {
                "code": "vital-signs",
                "display": "Vital Signs",
                "system": "http://terminology.hl7.org/CodeSystem/observation-category"
              }
            ]
          }
        ],
        "code": {
          "coding": [
            {
              "code": "8480-6",
              "display": "Systolic blood pressure",
              "system": "http://loinc.org"
            }
          ]
        },
        "effectiveDateTime": "2023-03-01T02:15:00+00:00",
        "encounter": {
          "reference": "Encounter/9939c7ba-305b-4398-b366-6ee9458fe21f"
        },
        "id": "df02e44c-61c1-4dea-a60b-5d3af04e78ab",
        "identifier": [],
        "issued": "2023-03-01T02:15:00+00:00",
        "meta": {
          "lastUpdated": "2025-08-08T07:55:32.396931+00:00",
          "versionId": "MTc1NDYzOTczMjM5NjkzMTAwMA"
        },
        "performer": [
          {
            "reference": "Practitioner/10009880728"
          }
        ],
        "resourceType": "Observation",
        "status": "final",
        "subject": {
          "display": "Claudia Sintia",
          "reference": "Patient/P03647103112"
        },
        "valueQuantity": {
          "code": "mm[Hg]",
          "system": "http://unitsofmeasure.org",
          "unit": "mm[Hg]",
          "value": 140
        }
      }
    },
    {
      "fullUrl": "Observation/34d72695-6997-4593-bd6c-890373010f74",
      "resource": {
        "category": [
          {
            "coding": [
              {
                "code": "procedure",
                "display": "Procedure",
                "system": "http://terminology.hl7.org/CodeSystem/observation-category"
              }
            ]
          }
        ],
        "code": {
          "coding": [
            {
              "code": "OC000183",
              "display": "Thrombolysis in Cerebral Infarction Score",
              "system": "http://terminology.kemkes.go.id/CodeSystem/clinical-term"
            }
          ]
        },
        "effectiveDateTime": "2023-03-01T04:15:00+00:00",
        "encounter": {
          "reference": "Encounter/9939c7ba-305b-4398-b366-6ee9458fe21f"
        },
        "id": "34d72695-6997-4593-bd6c-890373010f74",
        "identifier": [],
        "issued": "2023-03-01T04:15:00+00:00",
        "meta": {
          "lastUpdated": "2025-08-08T08:22:27.006836+00:00",
          "versionId": "MTc1NDY0MTM0NzAwNjgzNjAwMA"
        },
        "performer": [
          {
            "reference": "Practitioner/10009880728"
          }
        ],
        "resourceType": "Observation",
        "status": "final",
        "subject": {
          "display": "Claudia Sintia",
          "reference": "Patient/P03647103112"
        },
        "valueCodeableConcept": {
          "coding": [
            {
              "code": "OV000412",
              "display": "Grade 2b",
              "system": "http://terminology.kemkes.go.id/CodeSystem/clinical-term"
            }
          ]
        }
      }
    },
    {
      "fullUrl": "Procedure/a5c0a8b2-e32e-43e5-bdaf-ac34de8f11dc",
      "resource": {
        "resourceType": "Procedure",
        "id": "a5c0a8b2-e32e-43e5-bdaf-ac34de8f11dc",
        "meta": {
          "lastUpdated": "2025-08-06T08:53:33.862921+00:00",
          "versionId": "MTc1NDQ3MDQxMzg2MjkyMTAwMA"
        },
        "identifier": [],
        "status": "completed",
        "category": {
          "coding": [
            {
              "system": "http://snomed.info/sct",
              "code": "103693007",
              "display": "Diagnostic procedure"
            }
          ],
          "text": "Prosedur Diagnostik"
        },
        "code": {
          "coding": [
            {
              "system": "http://hl7.org/fhir/sid/icd-9-cm",
              "code": "89.52",
              "display": "Electrocardiogram"
            }
          ]
        },
        "subject": {
          "reference": "Patient/P03647103112",
          "display": "Claudia Sintia"
        },
        "encounter": {
          "reference": "Encounter/654e2d68-d24e-4ab4-b51e-9eb9bd85192e"
        },
        "performedPeriod": {
          "start": "2024-03-14T02:50:00+00:00",
          "end": "2024-03-14T03:00:00+00:00"
        },
        "performer": [
          {
            "actor": {
              "reference": "Practitioner/10009880728"
            }
          }
        ]
      }
    },
    {
      "fullUrl": "Observation/08cdd90b-a1d7-4102-90c2-ac189a5db086",
      "resource": {
        "resourceType": "Observation",
        "id": "08cdd90b-a1d7-4102-90c2-ac189a5db086",
        "status": "final",
        "category": [
          {
            "coding": [
              {
                "system": "http://terminology.hl7.org/CodeSystem/observation-category",
                "code": "vital-signs",
                "display": "Vital Signs"
              }
            ]
          }
        ],
        "code": {
          "coding": [
            {
              "system": "http://loinc.org",
              "code": "29463-7",
              "display": "Body weight"
            }
          ]
        },
        "subject": {
          "reference": "Patient/P00805884304"
        },
        "encounter": {
          "reference": "Encounter/1fb50556-ad92-45bf-82be-15c32b005824"
        },
        "effectiveDateTime": "2024-04-24T03:25:00+00:00",
        "valueQuantity": {
          "value": 70,
          "unit": "kg",
          "system": "http://unitsofmeasure.org",
          "code": "kg"
        }
      }
    },
    {
      "fullUrl": "Patient/P00805884304",
      "resource": {
        "resourceType": "Patient",
        "id": "P00805884304",
        "name": [
          {
            "text": "Patient_Name"
          }
        ]
      }
    },
    {
      "fullUrl": "Encounter/1fb50556-ad92-45bf-82be-15c32b005824",
      "resource": {
        "resourceType": "Encounter",
        "id": "1fb50556-ad92-45bf-82be-15c32b005824",
        "status": "finished",
        "class": [
          {
            "system": "http://terminology.hl7.org/CodeSystem/v3-ActCode",
            "code": "AMB",
            "display": "ambulatory"
          }
        ],
        "subject": {
          "reference": "Patient/P00805884304"
        },
        "serviceProvider": {
          "reference": "Organization/10000002"
        },
        "participant": [
          {
            "type": [
              {
                "coding": [
                  {
                    "system": "http://terminology.hl7.org/CodeSystem/v3-ParticipationType",
                    "code": "ATND",
                    "display": "attender"
                  }
                ]
              }
            ],
            "individual": {
              "display": "dr. Bronsig",
              "reference": "Practitioner/N10000001"
            }
          }
        ],
        "period": {
          "start": "2024-04-24T03:00:00+00:00",
          "end": "2024-04-24T04:00:00+00:00"
        }
      }
    },
    {
      "fullUrl": "Organization/10000002",
      "resource": {
        "resourceType": "Organization",
        "id": "10000002",
        "name": "Fasilitas Kesehatan 10000002",
        "identifier": [
          {
            "system": "http://sys-ids.kemkes.go.id/organization",
            "value": "10000002"
          }
        ]
      }
    },
    {
      "fullUrl": "Practitioner/N10000001",
      "resource": {
        "resourceType": "Practitioner",
        "id": "N10000001",
        "name": [
          {
            "use": "official",
            "text": "dr. Bronsig"
          }
        ],
        "identifier": [
          {
            "system": "https://fhir.kemkes.go.id/id/nakes-his-number",
            "value": "N10000001"
          }
        ]
      }
    },
    {
      "fullUrl": "Observation/3144e054-7de1-44b4-8ea7-3a80f1f82e8f",
      "resource": {
        "basedOn": [
          {
            "reference": "ServiceRequest/302bac31-808c-4465-96b5-ecb8ad598554"
          }
        ],
        "category": [
          {
            "coding": [
              {
                "code": "imaging",
                "display": "Imaging",
                "system": "http://terminology.hl7.org/CodeSystem/observation-category"
              }
            ]
          }
        ],
        "code": {
          "coding": [
            {
              "code": "36146-9",
              "display": "CTA Carotid artery W contrast IV",
              "system": "http://loinc.org"
            }
          ]
        },
        "derivedFrom": [
          {
            "reference": "ImagingStudy/2f6d16b6-a59b-4b0d-8517-d9f9d99ee512"
          }
        ],
        "effectiveDateTime": "2023-03-02T02:30:00+00:00",
        "encounter": {
          "reference": "Encounter/b02759e2-de8a-45ce-a6c8-a577a89e800a"
        },
        "id": "3144e054-7de1-44b4-8ea7-3a80f1f82e8f",
        "identifier": [
          {
            "system": "http://sys-ids.kemkes.go.id/observation/6e3e3a13-8114-44b2-90b3-bbaeeeebf9f0",
            "value": "O00021"
          }
        ],
        "issued": "2023-03-02T02:40:00+00:00",
        "meta": {
          "lastUpdated": "2025-08-08T09:05:11.305259+00:00",
          "versionId": "MTc1NDY0MzkxMTMwNTI1OTAwMA"
        },
        "performer": [
          {
            "reference": "Practitioner/10009880728"
          },
          {
            "reference": "Organization/6e3e3a13-8114-44b2-90b3-bbaeeeebf9f0"
          }
        ],
        "resourceType": "Observation",
        "status": "final",
        "subject": {
          "reference": "Patient/P03647103112"
        },
        "valueCodeableConcept": {
          "coding": [
            {
              "code": "415582006",
              "display": "Stenosis",
              "system": "http://snomed.info/sct"
            }
          ]
        }
      }
    },
    {
      "fullUrl": "MedicationDispense/meddisp-visit-001",
      "resource": {
        "resourceType": "MedicationDispense",
        "id": "meddisp-visit-001",
        "status": "completed",
        "medicationCodeableConcept": {
          "coding": [
            {
              "system": "http://sys-ids.kemkes.go.id/kfa",
              "code": "93001001",
              "display": "Tranexamic acid 500 mg injection"
            }
          ]
        },
        "subject": {
          "reference": "Patient/P03647103112"
        },
        "whenHandedOver": "2023-06-04T10:23:00+00:00",
        "quantity": {
          "value": 1,
          "unit": "vial",
          "system": "http://unitsofmeasure.org",
          "code": "{vial}"
        }
      }
    },
    {
      "fullUrl": "Observation/obs-sistole-001",
      "resource": {
        "resourceType": "Observation",
        "id": "obs-sistole-001",
        "status": "final",
        "category": [
          {
            "coding": [
              {
                "system": "http://terminology.hl7.org/CodeSystem/observation-category",
                "code": "vital-signs",
                "display": "Vital Signs"
              }
            ]
          }
        ],
        "code": {
          "coding": [
            {
              "system": "http://loinc.org",
              "code": "8480-6",
              "display": "Systolic blood pressure"
            }
          ]
        },
        "subject": {
          "reference": "Patient/P03647103112"
        },
        "encounter": {
          "reference": "Encounter/enc-igd-20230604"
        },
        "effectiveDateTime": "2023-06-04T10:05:00+00:00",
        "valueQuantity": {
          "value": 120,
          "unit": "mm[Hg]",
          "system": "http://unitsofmeasure.org",
          "code": "mm[Hg]"
        }
      }
    },
    {
      "fullUrl": "Procedure/proc-edukasi",
      "resource": {
        "resourceType": "Procedure",
        "id": "proc-edukasi",
        "status": "completed",
        "code": {
          "coding": [
            {
              "system": "http://loinc.org",
              "code": "34895-3",
              "display": "Education note"
            }
          ],
          "text": "Edukasi pasien & keluarga"
        },
        "subject": {
          "reference": "Patient/P03647103112"
        },
        "performedDateTime": "2023-03-01T09:20:00+07:00",
        "performer": [
          {
            "actor": {
              "reference": "Practitioner/10009880728"
            }
          }
        ]
      }
    },
    {
      "fullUrl": "Procedure/proc-prarad-001",
      "resource": {
        "resourceType": "Procedure",
        "id": "proc-prarad-001",
        "status": "completed",
        "category": {
          "coding": [
            {
              "system": "http://snomed.info/sct",
              "code": "103693007",
              "display": "Diagnostic procedure"
            }
          ]
        },
        "code": {
          "coding": [
            {
              "system": "http://snomed.info/sct",
              "code": "387713003",
              "display": "Insertion of intravenous cannula"
            }
          ]
        },
        "subject": {
          "reference": "Patient/P03647103112"
        },
        "performedDateTime": "2023-06-04T10:16:00+00:00",
        "encounter": {
          "reference": "Encounter/enc-igd-20230604"
        }
      }
    },
    {
      "fullUrl": "Observation/9ad45971-33ba-41fb-aa1b-bebfa882cb71",
      "resource": {
        "category": [
          {
            "coding": [
              {
                "code": "exam",
                "display": "Exam",
                "system": "http://terminology.hl7.org/CodeSystem/observation-category"
              }
            ]
          }
        ],
        "code": {
          "coding": [
            {
              "code": "72089-6",
              "display": "Total score [NIH Stroke Scale]",
              "system": "http://loinc.org"
            }
          ]
        },
        "effectiveDateTime": "2023-03-01T03:00:00+00:00",
        "encounter": {
          "reference": "Encounter/9939c7ba-305b-4398-b366-6ee9458fe21f"
        },
        "id": "9ad45971-33ba-41fb-aa1b-bebfa882cb71",
        "identifier": [],
        "interpretation": [
          {
            "coding": [
              {
                "code": "IP099353",
                "display": "defisit neurologis sedang / cukup berat",
                "system": "http://terminology.kemkes.go.id/CodeSystem/examination"
              }
            ]
          }
        ],
        "issued": "2023-03-01T03:00:00+00:00",
        "meta": {
          "lastUpdated": "2025-08-08T08:21:15.379241+00:00",
          "versionId": "MTc1NDY0MTI3NTM3OTI0MTAwMA"
        },
        "performer": [
          {
            "reference": "Practitioner/10009880728"
          }
        ],
        "resourceType": "Observation",
        "status": "final",
        "subject": {
          "reference": "Patient/P03647103112"
        },
        "valueQuantity": {
          "code": "{score}",
          "system": "http://unitsofmeasure.org",
          "unit": "{score}",
          "value": 14
        }
      }
    },
    {
      "fullUrl": "Observation/bc54a402-6c42-40e6-8f62-924e01e136f4",
      "resource": {
        "resourceType": "Observation",
        "id": "bc54a402-6c42-40e6-8f62-924e01e136f4",
        "status": "final",
        "category": [
          {
            "coding": [
              {
                "system": "http://terminology.hl7.org/CodeSystem/observation-category",
                "code": "social-history",
                "display": "Social History"
              }
            ]
          }
        ],
        "code": {
          "coding": [
            {
              "system": "http://snomed.info/sct",
              "code": "38341003",
              "display": "Hypertension"
            }
          ]
        },
        "subject": {
          "reference": "Patient/P00805884304"
        },
        "encounter": {
          "reference": "Encounter/1fb50556-ad92-45bf-82be-15c32b005824"
        },
        "effectiveDateTime": "2024-04-24T03:20:00+00:00",
        "valueBoolean": true
      }
    },
    {
      "fullUrl": "Observation/obs-td-sistol",
      "resource": {
        "resourceType": "Observation",
        "id": "obs-td-sistol",
        "status": "final",
        "category": [
          {
            "coding": [
              {
                "system": "http://terminology.hl7.org/CodeSystem/observation-category",
                "code": "vital-signs"
              }
            ]
          }
        ],
        "code": {
          "coding": [
            {
              "system": "http://loinc.org",
              "code": "8480-6",
              "display": "Systolic blood pressure"
            }
          ]
        },
        "subject": {
          "reference": "Patient/P03647103112"
        },
        "encounter": {
          "reference": "Encounter/9939c7ba-305b-4398-b366-6ee9458fe21f"
        },
        "effectiveDateTime": "2023-03-01T09:10:00+07:00",
        "performer": [
          {
            "reference": "Practitioner/10009880728"
          }
        ],
        "valueQuantity": {
          "value": 138,
          "unit": "mm[Hg]",
          "system": "http://unitsofmeasure.org",
          "code": "mm[Hg]"
        }
      }
    },
    {
      "fullUrl": "Observation/obs-diastole-001",
      "resource": {
        "resourceType": "Observation",
        "id": "obs-diastole-001",
        "status": "final",
        "category": [
          {
            "coding": [
              {
                "system": "http://terminology.hl7.org/CodeSystem/observation-category",
                "code": "vital-signs",
                "display": "Vital Signs"
              }
            ]
          }
        ],
        "code": {
          "coding": [
            {
              "system": "http://loinc.org",
              "code": "8462-4",
              "display": "Diastolic blood pressure"
            }
          ]
        },
        "subject": {
          "reference": "Patient/P03647103112"
        },
        "encounter": {
          "reference": "Encounter/enc-igd-20230604"
        },
        "effectiveDateTime": "2023-06-04T10:05:00+00:00",
        "valueQuantity": {
          "value": 78,
          "unit": "mm[Hg]",
          "system": "http://unitsofmeasure.org",
          "code": "mm[Hg]"
        }
      }
    },
    {
      "fullUrl": "Procedure/proc-ekg-001",
      "resource": {
        "resourceType": "Procedure",
        "id": "proc-ekg-001",
        "status": "completed",
        "code": {
          "coding": [
            {
              "system": "http://snomed.info/sct",
              "code": "185349003",
              "display": "Electrocardiographic procedure"
            }
          ]
        },
        "subject": {
          "reference": "Patient/P03647103112"
        },
        "performedDateTime": "2023-06-04T10:25:00+00:00",
        "encounter": {
          "reference": "Encounter/enc-igd-20230604"
        }
      }
    },
    {
      "fullUrl": "Condition/a0ae133c-9469-4107-a5b2-1311a122ece1",
      "resource": {
        "resourceType": "Condition",
        "id": "a0ae133c-9469-4107-a5b2-1311a122ece1",
        "clinicalStatus": {
          "coding": [
            {
              "system": "http://terminology.hl7.org/CodeSystem/condition-clinical",
              "code": "active",
              "display": "Active"
            }
          ]
        },
        "category": [
          {
            "coding": [
              {
                "system": "http://terminology.hl7.org/CodeSystem/condition-category",
                "code": "encounter-diagnosis",
                "display": "Encounter Diagnosis"
              }
            ]
          }
        ],
        "code": {
          "coding": [
            {
              "system": "http://hl7.org/fhir/sid/icd-10",
              "code": "N18.4",
              "display": "Chronic kidney disease, stage 4 (severe)"
            }
          ]
        },
        "subject": {
          "reference": "Patient/P00805884304"
        },
        "encounter": {
          "reference": "Encounter/1fb50556-ad92-45bf-82be-15c32b005824"
        },
        "recordedDate": "2024-04-24T03:58:00+00:00",
        "verificationStatus": {
          "coding": [
            {
              "system": "http://terminology.hl7.org/CodeSystem/condition-ver-status",
              "code": "confirmed"
            }
          ]
        }
      }
    },
    {
      "fullUrl": "Procedure/proc-lab-001",
      "resource": {
        "resourceType": "Procedure",
        "id": "proc-lab-001",
        "status": "completed",
        "category": {
          "coding": [
            {
              "system": "http://snomed.info/sct",
              "code": "103693007",
              "display": "Diagnostic procedure"
            }
          ]
        },
        "code": {
          "coding": [
            {
              "system": "http://snomed.info/sct",
              "code": "22778000",
              "display": "Venipuncture for blood test"
            }
          ]
        },
        "subject": {
          "reference": "Patient/P03647103112"
        },
        "performedDateTime": "2023-06-04T10:12:00+00:00",
        "basedOn": [
          {
            "reference": "ServiceRequest/sr-lab-001"
          }
        ]
      }
    },
    {
      "fullUrl": "Observation/d66dd8fd-117a-45a0-a66c-497ed6ad0664",
      "resource": {
        "resourceType": "Observation",
        "id": "d66dd8fd-117a-45a0-a66c-497ed6ad0664",
        "status": "final",
        "category": [
          {
            "coding": [
              {
                "system": "http://terminology.hl7.org/CodeSystem/observation-category",
                "code": "imaging",
                "display": "Imaging"
              }
            ]
          }
        ],
        "code": {
          "coding": [
            {
              "system": "http://loinc.org",
              "code": "30765-8",
              "display": "Kidney left US"
            }
          ],
          "text": "USG Ginjal Kiri"
        },
        "subject": {
          "reference": "Patient/P00805884304"
        },
        "encounter": {
          "reference": "Encounter/1fb50556-ad92-45bf-82be-15c32b005824"
        },
        "effectiveDateTime": "2024-04-24T03:50:00+00:00",
        "valueString": "Tidak tampak batu, ukuran ginjal dalam batas",
        "performer": [
          {
            "reference": "Organization/10000002"
          }
        ]
      }
    }
  ]
}