{
  "resourceType": "Bundle",
  "type": "document",
  "timestamp": "2025-11-26T16:40:00.509853Z",
  "entry": [
    {
      "fullUrl": "Composition/generated-comp-49464f53-7cca-4d28-88e0-7d541e9e7b90",
      "resource": {
        "resourceType": "Composition",
        "id": "generated-comp-49464f53-7cca-4d28-88e0-7d541e9e7b90",
        "status": "final",
        "type": {
          "coding": [
            {
              "system": "http://loinc.org",
              "code": "11506-3",
              "display": "Clinical Document"
            }
          ]
        },
        "title": "Synthetic Composition Document (2025-11-26T16:40:00.509739Z)",
        "date": "2025-11-26T16:40:00.509759Z",
        "author": [
          {
            "display": "SyntheticGenerator"
          }
        ],
        "subject": {
          "reference": "Patient/c4db2826-ab1a-4724-92f1-1ca49a372067"
        },
        "section": [
          {
            "title": "Pemeriksaan Neurologis Stroke",
            "entry": [
              {
                "reference": "Observation/83666622-7f81-4336-96db-f0d4c72bc11c"
              },
              {
                "reference": "Observation/d63d9b5d-aa98-4405-8c25-e4e8cc62a073"
              },
              {
                "reference": "Observation/07892d33-046f-4951-aaf1-9434c1b379ca"
              }
            ]
          },
          {
            "title": "Episode Perawatan",
            "entry": [
              {
                "reference": "EpisodeOfCare/aecb5ec2-a860-4376-805f-3b496378a63d"
              }
            ]
          },
          {
            "title": "Anamnesis",
            "entry": [
              {
                "reference": "Observation/fbea1cfa-af02-4a43-b62d-c0b89d3db1c8"
              },
              {
                "reference": "Observation/230fbde5-49b7-4738-875e-b23e8472edd0"
              },
              {
                "reference": "Observation/1996e2b0-f47e-440d-bff5-e3db59fadf3d"
              }
            ]
          },
          {
            "title": "Data Kepulangan Pasien Stroke",
            "entry": [
              {
                "reference": "Observation/5ee7af85-7f11-4ec3-82f9-aa8c3a4d03f6"
              },
              {
                "reference": "Observation/f4b0369b-e33d-46f3-b0fa-28d6acb14b6a"
              }
            ]
          },
          {
            "title": "Pemeriksaan Fisik",
            "entry": [
              {
                "reference": "Observation/5c23385f-ddd3-44cc-809c-a7efcdbadee5"
              },
              {
                "reference": "Observation/8118ae1e-261f-4339-addb-94af45447b3b"
              },
              {
                "reference": "Observation/ee3bc6ff-4ba7-4c24-a463-53811da3abe0"
              },
              {
                "reference": "Observation/df02e44c-61c1-4dea-a60b-5d3af04e78ab"
              }
            ]
          }
        ]
      }
    },
    {
      "fullUrl": "Patient/c4db2826-ab1a-4724-92f1-1ca49a372067",
      "resource": {
        "resourceType": "Patient",
        "id": "c4db2826-ab1a-4724-92f1-1ca49a372067",
        "name": [
          {
            "use": "official",
            "family": "Synthetic-c4db2826",
            "given": [
              "Patient"
            ]
          }
        ],
        "gender": "unknown",
        "birthDate": "1973-01-01",
        "identifier": [
          {
            "system": "urn:synthetic",
            "value": "c4db2826-ab1a-4724-92f1-1ca49a372067"
          }
        ]
      }
    },
    {
      "fullUrl": "EpisodeOfCare/aecb5ec2-a860-4376-805f-3b496378a63d",
      "resource": {
        "id": "aecb5ec2-a860-4376-805f-3b496378a63d",
        "identifier": [
          {
            "system": "http://sys-ids.kemkes.go.id/episode-of-care/6e3e3a13-8114-44b2-90b3-bbaeeeebf9f0",
            "value": "EOC1023456"
          },
          {
            "system": "http://sys-ids.kemkes.go.id/episode-of-care/suspect-id/",
            "value": "CVDS202511000003108"
          },
          {
            "system": "http://sys-ids.kemkes.go.id/episode-of-care/registry-id/",
            "value": "CVDC202511000000039"
          }
        ],
        "managingOrganization": {
          "reference": "Organization/6e3e3a13-8114-44b2-90b3-bbaeeeebf9f0"
        },
        "meta": {
          "lastUpdated": "2025-08-08T08:29:56.957720+00:00",
          "versionId": "MTc1NDY0MTc5Njk1NzcyMDAwMA"
        },
        "patient": {
          "display": "Claudia Sintia",
          "reference": "Patient/c4db2826-ab1a-4724-92f1-1ca49a372067"
        },
        "period": {
          "start": "2023-02-01T02:40:00+00:00"
        },
        "resourceType": "EpisodeOfCare",
        "status": "active",
        "statusHistory": [
          {
            "period": {
              "end": "2023-03-01T02:40:00+00:00",
              "start": "2023-02-01T02:40:00+00:00"
            },
            "status": "waitlist"
          },
          {
            "period": {
              "start": "2023-03-01T02:40:00+00:00"
            },
            "status": "active"
          }
        ],
        "type": [
          {
            "coding": [
              {
                "code": "CVD",
                "display": "Cerebrovascular Disease",
                "system": "http://terminology.kemkes.go.id/CodeSystem/episodeofcare-type"
              }
            ]
          }
        ]
      }
    },
    {
      "fullUrl": "Organization/6e3e3a13-8114-44b2-90b3-bbaeeeebf9f0",
      "resource": {
        "resourceType": "Organization",
        "id": "6e3e3a13-8114-44b2-90b3-bbaeeeebf9f0",
        "name": "RS Contoh Santosa",
        "identifier": [
          {
            "system": "http://sys-ids.kemkes.go.id/organization",
            "value": "10000001"
          }
        ]
      }
    },
    {
      "fullUrl": "Observation/07892d33-046f-4951-aaf1-9434c1b379ca",
      "resource": {
        "category": [
          {
            "coding": [
              {
                "code": "exam",
                "display": "Exam",
                "system": "http://terminology.hl7.org/CodeSystem/observation-category"
              }
            ]
          }
        ],
        "code": {
          "coding": [
            {
              "code": "431765005",
              "display": "Screening for dysphagia",
              "system": "http://snomed.info/sct"
            }
          ]
        },
        "effectiveDateTime": "2023-03-01T02:15:00+00:00",
        "encounter": {
          "reference": "Encounter/9939c7ba-305b-4398-b366-6ee9458fe21f"
        },
        "id": "07892d33-046f-4951-aaf1-9434c1b379ca",
        "identifier": [],
        "issued": "2023-03-01T02:15:00+00:00",
        "meta": {
          "lastUpdated": "2025-08-08T08:06:08.851404+00:00",
          "versionId": "MTc1NDY0MDM2ODg1MTQwNDAwMA"
        },
        "performer": [
          {
            "reference": "Practitioner/10009880728"
          }
        ],
        "resourceType": "Observation",
        "status": "final",
        "subject": {
          "reference": "Patient/c4db2826-ab1a-4724-92f1-1ca49a372067"
        },
        "valueCodeableConcept": {
          "coding": [
            {
              "code": "162023004",
              "display": "No problem swallowing",
              "system": "http://snomed.info/sct"
            }
          ]
        }
      }
    },
    {
      "fullUrl": "Practitioner/10009880728",
      "resource": {
        "address": [
          {
            "city": "Kab. Garut",
            "country": "ID",
            "extension": [
              {
                "extension": [
                  {
                    "url": "province",
                    "valueCode": "32"
                  },
                  {
                    "url": "city",
                    "valueCode": "3205"
                  },
                  {
                    "url": "district",
                    "valueCode": "320519"
                  },
                  {
                    "url": "village",
                    "valueCode": "3205192003"
                  },
                  {
                    "url": "rw",
                    "valueCode": "1"
                  },
                  {
                    "url": "rt",
                    "valueCode": "12"
                  }
                ],
                "url": "https://fhir.kemkes.go.id/r4/StructureDefinition/administrativeCode"
              }
            ],
            "line": [
              "Komplek Kesehatan"
            ],
            "use": "home"
          }
        ],
        "birthDate": "1994-01-01",
        "gender": "male",
        "id": "10009880728",
        "identifier": [
          {
            "system": "https://fhir.kemkes.go.id/id/nakes-his-number",
            "value": "10009880728"
          },
          {
            "system": "https://fhir.kemkes.go.id/id/nik",
            "use": "official",
            "value": "7209061211900001"
          }
        ],
        "meta": {
          "lastUpdated": "2024-11-05T09:09:10.336694+00:00",
          "versionId": "MTczMDc5Nzc1MDMzNjY5NDAwMA"
        },
        "name": [
          {
            "text": "dr. Alexander",
            "use": "official"
          }
        ],
        "qualification": [
          {
            "code": {
              "coding": [
                {
                  "code": "STR-KKI",
                  "display": "Surat Tanda Registrasi Dokter",
                  "system": "https://terminology.kemkes.go.id/v1-0302"
                }
              ]
            },
            "identifier": [
              {
                "system": "https://fhir.kemkes.go.id/id/str-kki-number",
                "value": "1234567887654321"
              }
            ]
          }
        ],
        "resourceType": "Practitioner"
      }
    },
    {
      "fullUrl": "Encounter/9939c7ba-305b-4398-b366-6ee9458fe21f",
      "resource": {
        "class": {
          "code": "EMER",
          "display": "emergency",
          "system": "http://terminology.hl7.org/CodeSystem/v3-ActCode"
        },
        "diagnosis": [
          {
            "condition": {
              "display": "Cerebral infarction due unspecified occlusion or stenos cerebrl arteries",
              "reference": "Condition/f6ae9b21-187f-43bc-ab0f-995a1782d92b"
            },
            "use": {
              "coding": [
                {
                  "code": "DD",
                  "display": "Discharge diagnosis ",
                  "system": "http://terminology.hl7.org/CodeSystem/diagnosis-role"
                }
              ]
            }
          }
        ],
        "episodeOfCare": [
          {
            "reference": "EpisodeOfCare/aecb5ec2-a860-4376-805f-3b496378a63d"
          }
        ],
        "hospitalization": {
          "dischargeDisposition": {
            "coding": [
              {
                "code": "oth",
                "display": "Other",
                "system": "http://terminology.hl7.org/CodeSystem/discharge-disposition"
              }
            ],
            "text": "Pasien dipindahkan dari IGD ke rawat inap."
          }
        },
        "id": "9939c7ba-305b-4398-b366-6ee9458fe21f",
        "identifier": [
          {
            "system": "http://sys-ids.kemkes.go.id/encounter/6e3e3a13-8114-44b2-90b3-bbaeeeebf9f0",
            "value": "2025080826229"
          }
        ],
        "location": [
          {
            "extension": [
              {
                "extension": [
                  {
                    "url": "value",
                    "valueCodeableConcept": {
                      "coding": [
                        {
                          "code": "reguler",
                          "display": "Kelas Reguler",
                          "system": "http://terminology.kemkes.go.id/CodeSystem/locationServiceClass-Outpatient"
                        }
                      ]
                    }
                  },
                  {
                    "url": "upgradeClassIndicator",
                    "valueCodeableConcept": {
                      "coding": [
                        {
                          "code": "kelas-tetap",
                          "display": "Kelas Tetap Perawatan",
                          "system": "http://terminology.kemkes.go.id/CodeSystem/locationUpgradeClass"
                        }
                      ]
                    }
                  }
                ],
                "url": "https://fhir.kemkes.go.id/r4/StructureDefinition/ServiceClass"
              }
            ],
            "location": {
              "display": "Ruangan Triase, Instalasi Gawat Darurat, Gedung Utama, Lantai 1",
              "reference": "Location/a482e8d2-870e-45f2-a067-cccf633f0cde"
            },
            "period": {
              "end": "2023-03-01T02:10:00+00:00",
              "start": "2023-03-01T02:01:00+00:00"
            }
          },
          {
            "extension": [
              {
                "extension": [
                  {
                    "url": "value",
                    "valueCodeableConcept": {
                      "coding": [
                        {
                          "code": "reguler",
                          "display": "Kelas Reguler",
                          "system": "http://terminology.kemkes.go.id/CodeSystem/locationServiceClass-Outpatient"
                        }
                      ]
                    }
                  },
                  {
                    "url": "upgradeClassIndicator",
                    "valueCodeableConcept": {
                      "coding": [
                        {
                          "code": "kelas-tetap",
                          "display": "Kelas Tetap Perawatan",
                          "system": "http://terminology.kemkes.go.id/CodeSystem/locationUpgradeClass"
                        }
                      ]
                    }
                  }
                ],
                "url": "https://fhir.kemkes.go.id/r4/StructureDefinition/ServiceClass"
              }
            ],
            "location": {
              "display": "Ruangan Resusitasi, Instalasi Gawat Darurat, Gedung Utama, Lantai 1",
              "reference": "Location/a482e8d2-870e-45f2-a067-cccf633f0cde"
            },
            "period": {
              "end": "2023-03-01T03:10:00+00:00",
              "start": "2023-03-01T02:10:00+00:00"
            }
          }
        ],
        "meta": {
          "lastUpdated": "2025-08-08T08:28:48.033625+00:00",
          "versionId": "MTc1NDY0MTcyODAzMzYyNTAwMA"
        },
        "participant": [
          {
            "individual": {
              "display": "Dr. Alexander",
              "reference": "Practitioner/10009880728"
            },
            "type": [
              {
                "coding": [
                  {
                    "code": "ATND",
                    "display": "attender",
                    "system": "http://terminology.hl7.org/CodeSystem/v3-ParticipationType"
                  }
                ]
              }
            ]
          }
        ],
        "period": {
          "end": "2023-03-01T03:10:00+00:00",
          "start": "2023-03-01T02:00:00+00:00"
        },
        "resourceType": "Encounter",
        "serviceProvider": {
          "reference": "Organization/6e3e3a13-8114-44b2-90b3-bbaeeeebf9f0"
        },
        "status": "finished",
        "statusHistory": [
          {
            "period": {
              "end": "2023-03-01T02:01:00+00:00",
              "start": "2023-03-01T02:00:00+00:00"
            },
            "status": "arrived"
          },
          {
            "period": {
              "end": "2023-03-01T02:10:00+00:00",
              "start": "2023-03-01T02:01:00+00:00"
            },
            "status": "triaged"
          },
          {
            "period": {
              "end": "2023-03-01T03:10:00+00:00",
              "start": "2023-03-01T02:10:00+00:00"
            },
            "status": "in-progress"
          },
          {
            "period": {
              "end": "2023-03-01T03:10:00+00:00",
              "start": "2023-03-01T03:10:00+00:00"
            },
            "status": "finished"
          }
        ],
        "subject": {
          "display": "Claudia Sintia",
          "reference": "Patient/c4db2826-ab1a-4724-92f1-1ca49a372067"
        }
      }
    },
    {
      "fullUrl": "Observation/230fbde5-49b7-4738-875e-b23e8472edd0",
      "resource": {
        "category": [
          {
            "coding": [
              {
                "code": "survey",
                "display": "Survey",
                "system": "http://terminology.hl7.org/CodeSystem/observation-category"
              }
            ]
          }
        ],
        "code": {
          "coding": [
            {
              "code": "370992007",
              "display": "Dyslipidemia",
              "system": "http://snomed.info/sct"
            }
          ]
        },
        "component": [
          {
            "code": {
              "coding": [
                {
                  "code": "715047008",
                  "display": "Does obtain medication",
                  "system": "http://snomed.info/sct"
                }
              ]
            },
            "valueBoolean": true
          },
          {
            "code": {
              "coding": [
                {
                  "code": "OC000180",
                  "display": "Intensitas Obat Statin",
                  "system": "http://terminology.kemkes.go.id/CodeSystem/clinical-term"
                }
              ]
            },
            "valueCodeableConcept": {
              "coding": [
                {
                  "code": "OV000409",
                  "display": "Statin Intensitas Rendah",
                  "system": "http://terminology.kemkes.go.id/CodeSystem/clinical-term"
                }
              ]
            }
          }
        ],
        "effectiveDateTime": "2023-03-01T02:10:00+00:00",
        "encounter": {
          "reference": "Encounter/9939c7ba-305b-4398-b366-6ee9458fe21f"
        },
        "id": "230fbde5-49b7-4738-875e-b23e8472edd0",
        "identifier": [],
        "issued": "2023-03-01T02:10:00+00:00",
        "meta": {
          "lastUpdated": "2025-08-08T07:58:37.393907+00:00",
          "versionId": "MTc1NDYzOTkxNzM5MzkwNzAwMA"
        },
        "performer": [
          {
            "reference": "Practitioner/10009880728"
          }
        ],
        "resourceType": "Observation",
        "status": "final",
        "subject": {
          "display": "Claudia Sintia",
          "reference": "Patient/c4db2826-ab1a-4724-92f1-1ca49a372067"
        },
        "valueBoolean": true
      }
    },
    {
      "fullUrl": "Observation/df02e44c-61c1-4dea-a60b-5d3af04e78ab",
      "resource": {
        "bodySite": {
          "coding": [
            {
              "code": "368209003",
              "display": "Right arm",
              "system": "http://snomed.info/sct"
            }
          ]
        },
        "category": [
          {
            "coding": [
              {
                "code": "vital-signs",
                "display": "Vital Signs",
                "system": "http://terminology.hl7.org/CodeSystem/observation-category"
              }
            ]
          }
        ],
        "code": {
          "coding": [
            {
              "code": "8480-6",
              "display": "Systolic blood pressure",
              "system": "http://loinc.org"
            }
          ]
        },
        "effectiveDateTime": "2023-03-01T02:15:00+00:00",
        "encounter": {
          "reference": "Encounter/9939c7ba-305b-4398-b366-6ee9458fe21f"
        },
        "id": "df02e44c-61c1-4dea-a60b-5d3af04e78ab",
        "identifier": [],
        "issued": "2023-03-01T02:15:00+00:00",
        "meta": {
          "lastUpdated": "2025-08-08T07:55:32.396931+00:00",
          "versionId": "MTc1NDYzOTczMjM5NjkzMTAwMA"
        },
        "performer": [
          {
            "reference": "Practitioner/10009880728"
          }
        ],
        "resourceType": "Observation",
        "status": "final",
        "subject": {
          "display": "Claudia Sintia",
          "reference": "Patient/c4db2826-ab1a-4724-92f1-1ca49a372067"
        },
        "valueQuantity": {
          "code": "mm[Hg]",
          "system": "http://unitsofmeasure.org",
          "unit": "mm[Hg]",
          "value": 140
        }
      }
    },
    {
      "fullUrl": "Observation/5c23385f-ddd3-44cc-809c-a7efcdbadee5",
      "resource": {
        "category": [
          {
            "coding": [
              {
                "code": "vital-signs",
                "display": "Vital Signs",
                "system": "http://terminology.hl7.org/CodeSystem/observation-category"
              }
            ]
          }
        ],
        "code": {
          "coding": [
            {
              "code": "8302-2",
              "display": "Body height",
              "system": "http://loinc.org"
            }
          ]
        },
        "effectiveDateTime": "2023-03-01T02:15:00+00:00",
        "encounter": {
          "reference": "Encounter/9939c7ba-305b-4398-b366-6ee9458fe21f"
        },
        "id": "5c23385f-ddd3-44cc-809c-a7efcdbadee5",
        "identifier": [],
        "issued": "2023-03-01T02:15:00+00:00",
        "meta": {
          "lastUpdated": "2025-08-08T07:56:09.597202+00:00",
          "versionId": "MTc1NDYzOTc2OTU5NzIwMjAwMA"
        },
        "performer": [
          {
            "reference": "Practitioner/10009880728"
          }
        ],
        "resourceType": "Observation",
        "status": "final",
        "subject": {
          "display": "Claudia Sintia",
          "reference": "Patient/c4db2826-ab1a-4724-92f1-1ca49a372067"
        },
        "valueQuantity": {
          "code": "cm",
          "system": "http://unitsofmeasure.org",
          "unit": "cm",
          "value": 165
        }
      }
    },
    {
      "fullUrl": "Observation/83666622-7f81-4336-96db-f0d4c72bc11c",
      "resource": {
        "category": [
          {
            "coding": [
              {
                "code": "exam",
                "display": "Exam",
                "system": "http://terminology.hl7.org/CodeSystem/observation-category"
              }
            ]
          }
        ],
        "code": {
          "coding": [
            {
              "code": "72089-6",
              "display": "Total score [NIH Stroke Scale]",
              "system": "http://loinc.org"
            }
          ]
        },
        "effectiveDateTime": "2023-03-01T02:15:00+00:00",
        "encounter": {
          "reference": "Encounter/9939c7ba-305b-4398-b366-6ee9458fe21f"
        },
        "id": "83666622-7f81-4336-96db-f0d4c72bc11c",
        "identifier": [],
        "interpretation": [
          {
            "coding": [
              {
                "code": "IP099353",
                "display": "defisit neurologis sedang / cukup berat",
                "system": "http://terminology.kemkes.go.id/CodeSystem/examination"
              }
            ]
          }
        ],
        "issued": "2023-03-01T02:15:00+00:00",
        "meta": {
          "lastUpdated": "2025-08-08T08:05:38.690713+00:00",
          "versionId": "MTc1NDY0MDMzODY5MDcxMzAwMA"
        },
        "performer": [
          {
            "reference": "Practitioner/10009880728"
          }
        ],
        "resourceType": "Observation",
        "status": "final",
        "subject": {
          "reference": "Patient/c4db2826-ab1a-4724-92f1-1ca49a372067"
        },
        "valueQuantity": {
          "code": "{score}",
          "system": "http://unitsofmeasure.org",
          "unit": "{score}",
          "value": 14
        }
      }
    },
    {
      "fullUrl": "Observation/5ee7af85-7f11-4ec3-82f9-aa8c3a4d03f6",
      "resource": {
        "category": [
          {
            "coding": [
              {
                "code": "exam",
                "display": "Exam",
                "system": "http://terminology.hl7.org/CodeSystem/observation-category"
              }
            ]
          }
        ],
        "code": {
          "coding": [
            {
              "code": "72089-6",
              "display": "Total score [NIH Stroke Scale]",
              "system": "http://loinc.org"
            }
          ]
        },
        "effectiveDateTime": "2023-03-05T05:00:00+00:00",
        "encounter": {
          "reference": "Encounter/b02759e2-de8a-45ce-a6c8-a577a89e800a"
        },
        "id": "5ee7af85-7f11-4ec3-82f9-aa8c3a4d03f6",
        "identifier": [],
        "interpretation": [
          {
            "coding": [
              {
                "code": "IP099353",
                "display": "defisit neurologis sedang / cukup berat",
                "system": "http://terminology.kemkes.go.id/CodeSystem/examination"
              }
            ]
          }
        ],
        "issued": "2023-03-05T05:00:00+00:00",
        "meta": {
          "lastUpdated": "2025-08-08T09:08:33.687590+00:00",
          "versionId": "MTc1NDY0NDExMzY4NzU5MDAwMA"
        },
        "performer": [
          {
            "reference": "Practitioner/10009880728"
          }
        ],
        "resourceType": "Observation",
        "status": "final",
        "subject": {
          "reference": "Patient/c4db2826-ab1a-4724-92f1-1ca49a372067"
        },
        "valueQuantity": {
          "code": "{score}",
          "system": "http://unitsofmeasure.org",
          "unit": "{score}",
          "value": 14
        }
      }
    },
    {
      "fullUrl": "Observation/8118ae1e-261f-4339-addb-94af45447b3b",
      "resource": {
        "bodySite": {
          "coding": [
            {
              "code": "368209003",
              "display": "Right arm",
              "system": "http://snomed.info/sct"
            }
          ]
        },
        "category": [
          {
            "coding": [
              {
                "code": "vital-signs",
                "display": "Vital Signs",
                "system": "http://terminology.hl7.org/CodeSystem/observation-category"
              }
            ]
          }
        ],
        "code": {
          "coding": [
            {
              "code": "8462-4",
              "display": "Diastolic blood pressure",
              "system": "http://loinc.org"
            }
          ]
        },
        "effectiveDateTime": "2023-03-01T02:15:00+00:00",
        "encounter": {
          "reference": "Encounter/9939c7ba-305b-4398-b366-6ee9458fe21f"
        },
        "id": "8118ae1e-261f-4339-addb-94af45447b3b",
        "identifier": [],
        "issued": "2023-03-01T02:15:00+00:00",
        "meta": {
          "lastUpdated": "2025-08-08T07:54:07.390480+00:00",
          "versionId": "MTc1NDYzOTY0NzM5MDQ4MDAwMA"
        },
        "performer": [
          {
            "reference": "Practitioner/10009880728"
          }
        ],
        "resourceType": "Observation",
        "status": "final",
        "subject": {
          "display": "Claudia Sintia",
          "reference": "Patient/c4db2826-ab1a-4724-92f1-1ca49a372067"
        },
        "valueQuantity": {
          "code": "mm[Hg]",
          "system": "http://unitsofmeasure.org",
          "unit": "mm[Hg]",
          "value": 90
        }
      }
    },
    {
      "fullUrl": "Observation/ee3bc6ff-4ba7-4c24-a463-53811da3abe0",
      "resource": {
        "category": [
          {
            "coding": [
              {
                "code": "vital-signs",
                "display": "Vital Signs",
                "system": "http://terminology.hl7.org/CodeSystem/observation-category"
              }
            ]
          }
        ],
        "code": {
          "coding": [
            {
              "code": "29463-7",
              "display": "Body weight",
              "system": "http://loinc.org"
            }
          ]
        },
        "effectiveDateTime": "2023-03-01T02:15:00+00:00",
        "encounter": {
          "reference": "Encounter/9939c7ba-305b-4398-b366-6ee9458fe21f"
        },
        "id": "ee3bc6ff-4ba7-4c24-a463-53811da3abe0",
        "identifier": [],
        "issued": "2023-03-01T02:15:00+00:00",
        "meta": {
          "lastUpdated": "2025-08-08T07:55:44.947016+00:00",
          "versionId": "MTc1NDYzOTc0NDk0NzAxNjAwMA"
        },
        "performer": [
          {
            "reference": "Practitioner/10009880728"
          }
        ],
        "resourceType": "Observation",
        "status": "final",
        "subject": {
          "display": "Claudia Sintia",
          "reference": "Patient/c4db2826-ab1a-4724-92f1-1ca49a372067"
        },
        "valueQuantity": {
          "code": "kg",
          "system": "http://unitsofmeasure.org",
          "unit": "kg",
          "value": 75
        }
      }
    },
    {
      "fullUrl": "Observation/1996e2b0-f47e-440d-bff5-e3db59fadf3d",
      "resource": {
        "category": [
          {
            "coding": [
              {
                "code": "survey",
                "display": "Survey",
                "system": "http://terminology.hl7.org/CodeSystem/observation-category"
              }
            ]
          }
        ],
        "code": {
          "coding": [
            {
              "code": "38341003",
              "display": "Hypertension",
              "system": "http://snomed.info/sct"
            }
          ]
        },
        "component": [
          {
            "code": {
              "coding": [
                {
                  "code": "268607006",
                  "display": "Hypertension risk level",
                  "system": "http://snomed.info/sct"
                }
              ]
            },
            "valueCodeableConcept": {
              "coding": [
                {
                  "code": "827068008",
                  "display": "Stage 2 hypertension",
                  "system": "http://snomed.info/sct"
                }
              ]
            }
          },
          {
            "code": {
              "coding": [
                {
                  "code": "715047008",
                  "display": "Does obtain medication",
                  "system": "http://snomed.info/sct"
                }
              ]
            },
            "valueBoolean": true
          },
          {
            "code": {
              "coding": [
                {
                  "code": "31509003",
                  "display": "Controlled",
                  "system": "http://snomed.info/sct"
                }
              ]
            },
            "valueBoolean": true
          }
        ],
        "effectiveDateTime": "2023-03-01T02:10:00+00:00",
        "encounter": {
          "reference": "Encounter/9939c7ba-305b-4398-b366-6ee9458fe21f"
        },
        "id": "1996e2b0-f47e-440d-bff5-e3db59fadf3d",
        "identifier": [],
        "issued": "2023-03-01T02:10:00+00:00",
        "meta": {
          "lastUpdated": "2025-08-08T07:57:47.492092+00:00",
          "versionId": "MTc1NDYzOTg2NzQ5MjA5MjAwMA"
        },
        "performer": [
          {
            "reference": "Practitioner/10009880728"
          }
        ],
        "resourceType": "Observation",
        "status": "final",
        "subject": {
          "display": "Claudia Sintia",
          "reference": "Patient/c4db2826-ab1a-4724-92f1-1ca49a372067"
        },
        "valueBoolean": true
      }
    },
    {
      "fullUrl": "Observation/d63d9b5d-aa98-4405-8c25-e4e8cc62a073",
      "resource": {
        "category": [
          {
            "coding": [
              {
                "code": "exam",
                "display": "Exam",
                "system": "http://terminology.hl7.org/CodeSystem/observation-category"
              }
            ]
          }
        ],
        "code": {
          "coding": [
            {
              "code": "75859-9",
              "display": "Modified rankin scale",
              "system": "http://loinc.org"
            }
          ]
        },
        "effectiveDateTime": "2023-03-01T02:15:00+00:00",
        "encounter": {
          "reference": "Encounter/9939c7ba-305b-4398-b366-6ee9458fe21f"
        },
        "id": "d63d9b5d-aa98-4405-8c25-e4e8cc62a073",
        "identifier": [],
        "issued": "2023-03-01T02:15:00+00:00",
        "meta": {
          "lastUpdated": "2025-08-08T08:05:54.613512+00:00",
          "versionId": "MTc1NDY0MDM1NDYxMzUxMjAwMA"
        },
        "performer": [
          {
            "reference": "Practitioner/10009880728"
          }
        ],
        "resourceType": "Observation",
        "status": "final",
        "subject": {
          "reference": "Patient/c4db2826-ab1a-4724-92f1-1ca49a372067"
        },
        "valueCodeableConcept": {
          "coding": [
            {
              "code": "LA6114-8",
              "display": "3",
              "system": "http://loinc.org"
            }
          ]
        }
      }
    },
    {
      "fullUrl": "Observation/f4b0369b-e33d-46f3-b0fa-28d6acb14b6a",
      "resource": {
        "category": [
          {
            "coding": [
              {
                "code": "exam",
                "display": "Exam",
                "system": "http://terminology.hl7.org/CodeSystem/observation-category"
              }
            ]
          }
        ],
        "code": {
          "coding": [
            {
              "code": "75859-9",
              "display": "Modified rankin scale",
              "system": "http://loinc.org"
            }
          ]
        },
        "effectiveDateTime": "2023-03-05T05:00:00+00:00",
        "encounter": {
          "reference": "Encounter/b02759e2-de8a-45ce-a6c8-a577a89e800a"
        },
        "id": "f4b0369b-e33d-46f3-b0fa-28d6acb14b6a",
        "identifier": [],
        "issued": "2023-03-05T05:00:00+00:00",
        "meta": {
          "lastUpdated": "2025-08-08T09:08:41.100547+00:00",
          "versionId": "MTc1NDY0NDEyMTEwMDU0NzAwMA"
        },
        "performer": [
          {
            "reference": "Practitioner/10009880728"
          }
        ],
        "resourceType": "Observation",
        "status": "final",
        "subject": {
          "reference": "Patient/c4db2826-ab1a-4724-92f1-1ca49a372067"
        },
        "valueCodeableConcept": {
          "coding": [
            {
              "code": "LA6112-2",
              "display": "1",
              "system": "http://loinc.org"
            }
          ]
        }
      }
    },
    {
      "fullUrl": "Observation/fbea1cfa-af02-4a43-b62d-c0b89d3db1c8",
      "resource": {
        "category": [
          {
            "coding": [
              {
                "code": "social-history",
                "display": "Social History",
                "system": "http://terminology.hl7.org/CodeSystem/observation-category"
              }
            ]
          }
        ],
        "code": {
          "coding": [
            {
              "code": "405137009",
              "display": "Risk control behavior: alcohol use",
              "system": "http://snomed.info/sct"
            }
          ]
        },
        "effectiveDateTime": "2023-03-01T02:10:00+00:00",
        "encounter": {
          "reference": "Encounter/9939c7ba-305b-4398-b366-6ee9458fe21f"
        },
        "id": "fbea1cfa-af02-4a43-b62d-c0b89d3db1c8",
        "identifier": [],
        "issued": "2023-03-01T02:10:00+00:00",
        "meta": {
          "lastUpdated": "2025-08-08T07:59:20.206528+00:00",
          "versionId": "MTc1NDYzOTk2MDIwNjUyODAwMA"
        },
        "performer": [
          {
            "reference": "Practitioner/10009880728"
          }
        ],
        "resourceType": "Observation",
        "status": "final",
        "subject": {
          "reference": "Patient/c4db2826-ab1a-4724-92f1-1ca49a372067"
        },
        "valueBoolean": false
      }
    },
    {
      "fullUrl": "Observation/3ebbbb37-9fc0-40fa-bb3b-40c7a5fdf1c2",
      "resource": {
        "resourceType": "Observation",
        "id": "3ebbbb37-9fc0-40fa-bb3b-40c7a5fdf1c2",
        "status": "final",
        "category": [
          {
            "coding": [
              {
                "system": "http://terminology.hl7.org/CodeSystem/observation-category",
                "code": "vital-signs",
                "display": "Vital Signs"
              }
            ]
          }
        ],
        "code": {
          "coding": [
            {
              "system": "http://loinc.org",
              "code": "8867-4",
              "display": "Heart rate"
            }
          ],
          "text": "Heart rate"
        },
        "subject": {
          "reference": "Patient/c4db2826-ab1a-4724-92f1-1ca49a372067"
        },
        "effectiveDateTime": "2025-11-26T16:40:00.514169Z",
        "valueQuantity": {
          "value": 76.6,
          "unit": "beats/minute",
          "system": "http://unitsofmeasure.org",
          "code": "{beats}/min"
        },
        "encounter": {
          "reference": "Encounter/9939c7ba-305b-4398-b366-6ee9458fe21f"
        }
      }
    },
    {
      "fullUrl": "Observation/f4814c2d-7a4e-461d-8e40-c3bc7943c08f",
      "resource": {
        "resourceType": "Observation",
        "id": "f4814c2d-7a4e-461d-8e40-c3bc7943c08f",
        "status": "final",
        "category": [
          {
            "coding": [
              {
                "system": "http://terminology.hl7.org/CodeSystem/observation-category",
                "code": "vital-signs"
              }
            ]
          }
        ],
        "code": {
          "coding": [
            {
              "system": "http://loinc.org",
              "code": "9279-1",
              "display": "Respiratory rate"
            }
          ],
          "text": "Respiratory rate"
        },
        "subject": {
          "reference": "Patient/c4db2826-ab1a-4724-92f1-1ca49a372067"
        },
        "effectiveDateTime": "2025-11-26T16:40:00.514169Z",
        "valueQuantity": {
          "value": 17.7,
          "unit": "breaths/min",
          "system": "http://unitsofmeasure.org",
          "code": "breaths/min"
        },
        "encounter": {
          "reference": "Encounter/9939c7ba-305b-4398-b366-6ee9458fe21f"
        }
      }
    },
    {
      "fullUrl": "Observation/d06b8db3-7aa4-4044-a99b-25673584ccd9",
      "resource": {
        "resourceType": "Observation",
        "id": "d06b8db3-7aa4-4044-a99b-25673584ccd9",
        "status": "final",
        "category": [
          {
            "coding": [
              {
                "system": "http://terminology.hl7.org/CodeSystem/observation-category",
                "code": "vital-signs"
              }
            ]
          }
        ],
        "code": {
          "coding": [
            {
              "system": "http://loinc.org",
              "code": "85354-9",
              "display": "Blood pressure panel"
            }
          ],
          "text": "Blood pressure"
        },
        "subject": {
          "reference": "Patient/c4db2826-ab1a-4724-92f1-1ca49a372067"
        },
        "effectiveDateTime": "2025-11-26T16:40:00.514169Z",
        "component": [
          {
            "code": {
              "coding": [
                {
                  "system": "http://loinc.org",
                  "code": "8480-6",
                  "display": "Systolic blood pressure"
                }
              ],
              "text": "Systolic BP"
            },
            "valueQuantity": {
              "value": 117,
              "unit": "mmHg",
              "system": "http://unitsofmeasure.org",
              "code": "mm[Hg]"
            }
          },
          {
            "code": {
              "coding": [
                {
                  "system": "http://loinc.org",
                  "code": "8462-4",
                  "display": "Diastolic blood pressure"
                }
              ],
              "text": "Diastolic BP"
            },
            "valueQuantity": {
              "value": 74.7,
              "unit": "mmHg",
              "system": "http://unitsofmeasure.org",
              "code": "mm[Hg]"
            }
          }
        ],
        "encounter": {
          "reference": "Encounter/9939c7ba-305b-4398-b366-6ee9458fe21f"
        }
      }
    },
    {
      "fullUrl": "Observation/d534b4d1-137c-4255-8f05-1868e9e9b1bd",
      "resource": {
        "resourceType": "Observation",
        "id": "d534b4d1-137c-4255-8f05-1868e9e9b1bd",
        "status": "final",
        "category": [
          {
            "coding": [
              {
                "system": "http://terminology.hl7.org/CodeSystem/observation-category",
                "code": "vital-signs"
              }
            ]
          }
        ],
        "code": {
          "coding": [
            {
              "system": "http://loinc.org",
              "code": "8310-5",
              "display": "Body temperature"
            }
          ],
          "text": "Body temperature"
        },
        "subject": {
          "reference": "Patient/c4db2826-ab1a-4724-92f1-1ca49a372067"
        },
        "effectiveDateTime": "2025-11-26T16:40:00.514169Z",
        "valueQuantity": {
          "value": 36.8,
          "unit": "Cel",
          "system": "http://unitsofmeasure.org",
          "code": "Cel"
        },
        "encounter": {
          "reference": "Encounter/9939c7ba-305b-4398-b366-6ee9458fe21f"
        }
      }
    },
    {
      "fullUrl": "Observation/b6481c9b-9969-4690-a024-fde05eb2ee33",
      "resource": {
        "resourceType": "Observation",
        "id": "b6481c9b-9969-4690-a024-fde05eb2ee33",
        "status": "final",
        "category": [
          {
            "coding": [
              {
                "system": "http://terminology.hl7.org/CodeSystem/observation-category",
                "code": "vital-signs"
              }
            ]
          }
        ],
        "code": {
          "coding": [
            {
              "system": "http://loinc.org",
              "code": "2708-6",
              "display": "Oxygen saturation in Arterial blood by Pulse oximetry"
            }
          ],
          "text": "SpO2"
        },
        "subject": {
          "reference": "Patient/c4db2826-ab1a-4724-92f1-1ca49a372067"
        },
        "effectiveDateTime": "2025-11-26T16:40:00.514169Z",
        "valueQuantity": {
          "value": 98.9,
          "unit": "%",
          "system": "http://unitsofmeasure.org",
          "code": "%"
        },
        "encounter": {
          "reference": "Encounter/9939c7ba-305b-4398-b366-6ee9458fe21f"
        }
      }
    },
    {
      "fullUrl": "Observation/13cf79ff-0f82-4b5c-98d5-a618c1e2582f",
      "resource": {
        "resourceType": "Observation",
        "id": "13cf79ff-0f82-4b5c-98d5-a618c1e2582f",
        "status": "final",
        "code": {
          "coding": [
            {
              "system": "http://loinc.org",
              "code": "718-7",
              "display": "Hemoglobin [Mass/volume] in Blood"
            }
          ],
          "text": "Hemoglobin"
        },
        "subject": {
          "reference": "Patient/c4db2826-ab1a-4724-92f1-1ca49a372067"
        },
        "effectiveDateTime": "2025-11-26T16:40:00.514291Z",
        "valueQuantity": {
          "value": 13.7,
          "unit": "g/dL",
          "system": "http://unitsofmeasure.org",
          "code": "g/dL"
        }
      }
    },
    {
      "fullUrl": "Observation/fcdaa8c4-210d-4a36-be32-ba2ff468f9c1",
      "resource": {
        "resourceType": "Observation",
        "id": "fcdaa8c4-210d-4a36-be32-ba2ff468f9c1",
        "status": "final",
        "code": {
          "coding": [
            {
              "system": "http://loinc.org",
              "code": "6690-2",
              "display": "Leukocytes [#/volume] in Blood by Automated count"
            }
          ],
          "text": "WBC"
        },
        "subject": {
          "reference": "Patient/c4db2826-ab1a-4724-92f1-1ca49a372067"
        },
        "effectiveDateTime": "2025-11-26T16:40:00.514291Z",
        "valueQuantity": {
          "value": 9.7,
          "unit": "10^9/L",
          "system": "http://unitsofmeasure.org",
          "code": "10*9/L"
        }
      }
    },
    {
      "fullUrl": "Observation/2136c18b-c547-437e-b64c-8a729f4b55a1",
      "resource": {
        "resourceType": "Observation",
        "id": "2136c18b-c547-437e-b64c-8a729f4b55a1",
        "status": "final",
        "code": {
          "coding": [
            {
              "system": "http://loinc.org",
              "code": "777-3",
              "display": "Platelets [#/volume] in Blood by Automated count"
            }
          ],
          "text": "Platelets"
        },
        "subject": {
          "reference": "Patient/c4db2826-ab1a-4724-92f1-1ca49a372067"
        },
        "effectiveDateTime": "2025-11-26T16:40:00.514291Z",
        "valueQuantity": {
          "value": 239,
          "unit": "10^9/L",
          "system": "http://unitsofmeasure.org",
          "code": "10*9/L"
        }
      }
    },
    {
      "fullUrl": "Observation/bf0015e4-1b87-40a3-a938-7bbda7df915c",
      "resource": {
        "resourceType": "Observation",
        "id": "bf0015e4-1b87-40a3-a938-7bbda7df915c",
        "status": "final",
        "code": {
          "coding": [
            {
              "system": "http://loinc.org",
              "code": "2951-2",
              "display": "Sodium [Moles/volume] in Serum or Plasma"
            }
          ],
          "text": "Sodium"
        },
        "subject": {
          "reference": "Patient/c4db2826-ab1a-4724-92f1-1ca49a372067"
        },
        "effectiveDateTime": "2025-11-26T16:40:00.514291Z",
        "valueQuantity": {
          "value": 140,
          "unit": "mmol/L",
          "system": "http://unitsofmeasure.org",
          "code": "mmol/L"
        }
      }
    },
    {
      "fullUrl": "Observation/ad9638e4-3e4c-4c1f-800d-a2659b58db91",
      "resource": {
        "resourceType": "Observation",
        "id": "ad9638e4-3e4c-4c1f-800d-a2659b58db91",
        "status": "final",
        "code": {
          "coding": [
            {
              "system": "http://loinc.org",
              "code": "2823-3",
              "display": "Potassium [Moles/volume] in Serum or Plasma"
            }
          ],
          "text": "Potassium"
        },
        "subject": {
          "reference": "Patient/c4db2826-ab1a-4724-92f1-1ca49a372067"
        },
        "effectiveDateTime": "2025-11-26T16:40:00.514291Z",
        "valueQuantity": {
          "value": 4.0,
          "unit": "mmol/L",
          "system": "http://unitsofmeasure.org",
          "code": "mmol/L"
        }
      }
    },
    {
      "fullUrl": "Observation/cb3ed5c7-f04a-464c-9a79-3e6bdc5b4610",
      "resource": {
        "resourceType": "Observation",
        "id": "cb3ed5c7-f04a-464c-9a79-3e6bdc5b4610",
        "status": "final",
        "code": {
          "coding": [
            {
              "system": "http://loinc.org",
              "code": "2160-0",
              "display": "Creatinine [Mass/volume] in Serum or Plasma"
            }
          ],
          "text": "Creatinine"
        },
        "subject": {
          "reference": "Patient/c4db2826-ab1a-4724-92f1-1ca49a372067"
        },
        "effectiveDateTime": "2025-11-26T16:40:00.514291Z",
        "valueQuantity": {
          "value": 0.8,
          "unit": "mg/dL",
          "system": "http://unitsofmeasure.org",
          "code": "mg/dL"
        }
      }
    },
    {
      "fullUrl": "Observation/bf206ef1-b284-4e13-b076-dc348fa47b4a",
      "resource": {
        "resourceType": "Observation",
        "id": "bf206ef1-b284-4e13-b076-dc348fa47b4a",
        "status": "final",
        "code": {
          "coding": [
            {
              "system": "http://loinc.org",
              "code": "2345-7",
              "display": "Glucose [Mass/volume] in Blood"
            }
          ],
          "text": "Glucose"
        },
        "subject": {
          "reference": "Patient/c4db2826-ab1a-4724-92f1-1ca49a372067"
        },
        "effectiveDateTime": "2025-11-26T16:40:00.514291Z",
        "valueQuantity": {
          "value": 81.4,
          "unit": "mg/dL",
          "system": "http://unitsofmeasure.org",
          "code": "mg/dL"
        }
      }
    }
  ]
}